File: database_curated.csv
Fe,Si,C,Al,B,P,Ga,Ge,Cu,Ag,Au,Zn,Ti,V,Cr,Zr,Nb,Mo,Hf,Ta,W,Ce,Pr,Gd,U,Annealing temperature (K),Annealing Time (s),Primary Crystallization Onset (K),Primary Crystallization Peak (K) ,Secondary Crystallization Peak (K), Longitudinal Annealing field, Transverse Annealing field,Ribbon Thickness (um) ,Coercivity (A/m),Curie Temperature (K),Core Loss (kW/m^3 @ 0.2T 100kHz),Electrical Resistivity (10^-6*ohm*m),Permeability @ 1kHz,Magnetostriction (10^-6),Magnetic Saturation (T),Grain Diameter (nm),Reference DOI
72.5,13.5,0,0,9,0,0,1,1,0,0,0,0,0,0,0,3,0,0,0,0,0,0,0,0,928,3600,,,,0,0,25,4644.94,,,,,,,,10.1002/1521-396X(200202)189:3<877::AID-PSSA877>3.0.CO;2-G
71.5,9.5,0,1,9,0,0,5,1,0,0,0,0,0,0,0,3,0,0,0,0,0,0,0,0,923,3600,,,,0,0,25,4106.88,,,,,,,,10.1002/1521-396X(200202)189:3<877::AID-PSSA877>3.0.CO;2-G
73.5,13.5,0,0,9,0,0,0,1,0,0,0,0,0,0,0,3,0,0,0,0,0,0,0,0,928,3600,,,,0,0,25,3922.93,,,,,,,,10.1002/1521-396X(200202)189:3<877::AID-PSSA877>3.0.CO;2-G
73.5,13.5,0,0,9,0,0,0,1,0,0,0,0,0,0,0,3,0,0,0,0,0,0,0,0,883,3600,,,,0,0,25,2428.81,,,,,,,,10.1002/1521-396X(200202)189:3<877::AID-PSSA877>3.0.CO;2-G
73.5,13.5,0,0,7,0,0,2,1,0,0,0,0,0,0,0,3,0,0,0,0,0,0,0,0,928,3600,,,,0,0,25,996.493,,,,,,,,10.1002/1521-396X(200202)189:3<877::AID-PSSA877>3.0.CO;2-G
71.5,9.5,0,2,9,0,0,4,1,0,0,0,0,0,0,0,3,0,0,0,0,0,0,0,0,923,3600,,,,0,0,25,991.845,,,,,,,,10.1002/1521-396X(200202)189:3<877::AID-PSSA877>3.0.CO;2-G
72.5,13.5,0,0,9,0,0,1,1,0,0,0,0,0,0,0,3,0,0,0,0,0,0,0,0,883,3600,,,,0,0,25,127.489,,,,,,,,10.1002/1521-396X(200202)189:3<877::AID-PSSA877>3.0.CO;2-G
71.5,7.5,0,2,9,0,0,6,1,0,0,0,0,0,0,0,3,0,0,0,0,0,0,0,0,873,3600,,,,0,0,25,13.4023,,,,,,,,10.1002/1521-396X(200202)189:3<877::AID-PSSA877>3.0.CO;2-G
71.5,9.5,0,2,9,0,0,4,1,0,0,0,0,0,0,0,3,0,0,0,0,0,0,0,0,873,3600,,,,0,0,25,3.70854,,,,,,,,10.1002/1521-396X(200202)189:3<877::AID-PSSA877>3.0.CO;2-G
71.5,9.5,0,2,9,0,0,4,1,0,0,0,0,0,0,0,3,0,0,0,0,0,0,0,0,723,3600,,,,0,0,25,1.76164,,,,,,,,10.1002/1521-396X(200202)189:3<877::AID-PSSA877>3.0.CO;2-G
71.5,7.5,0,2,9,0,0,6,1,0,0,0,0,0,0,0,3,0,0,0,0,0,0,0,0,723,3600,,,,0,0,25,1.56095,,,,,,,,10.1002/1521-396X(200202)189:3<877::AID-PSSA877>3.0.CO;2-G
71.5,9.5,0,1,9,0,0,5,1,0,0,0,0,0,0,0,3,0,0,0,0,0,0,0,0,723,3600,,,,0,0,25,1.49175,,,,,,,,10.1002/1521-396X(200202)189:3<877::AID-PSSA877>3.0.CO;2-G
71.5,7.5,0,2,9,0,0,6,1,0,0,0,0,0,0,0,3,0,0,0,0,0,0,0,0,773,3600,,,,0,0,25,1.16684,,,,,,,,10.1002/1521-396X(200202)189:3<877::AID-PSSA877>3.0.CO;2-G
73.5,13.5,0,0,7,0,0,2,1,0,0,0,0,0,0,0,3,0,0,0,0,0,0,0,0,883,3600,,,,0,0,25,1.04356,,,,,,,,10.1002/1521-396X(200202)189:3<877::AID-PSSA877>3.0.CO;2-G
71.5,9.5,0,1,9,0,0,5,1,0,0,0,0,0,0,0,3,0,0,0,0,0,0,0,0,813,3600,,,,0,0,25,1.03083,,,,,,,,10.1002/1521-396X(200202)189:3<877::AID-PSSA877>3.0.CO;2-G
71.5,9.5,0,1,9,0,0,5,1,0,0,0,0,0,0,0,3,0,0,0,0,0,0,0,0,873,3600,,,,0,0,25,0.980647,,,,,,,,10.1002/1521-396X(200202)189:3<877::AID-PSSA877>3.0.CO;2-G
71.5,9.5,0,1,9,0,0,5,1,0,0,0,0,0,0,0,3,0,0,0,0,0,0,0,0,773,3600,,,,0,0,25,0.944314,,,,,,,,10.1002/1521-396X(200202)189:3<877::AID-PSSA877>3.0.CO;2-G
73.5,13.5,0,0,7,0,0,2,1,0,0,0,0,0,0,0,3,0,0,0,0,0,0,0,0,728,3600,,,,0,0,25,0.92447,,,,,,,,10.1002/1521-396X(200202)189:3<877::AID-PSSA877>3.0.CO;2-G
71.5,7.5,0,2,9,0,0,6,1,0,0,0,0,0,0,0,3,0,0,0,0,0,0,0,0,813,3600,,,,0,0,25,0.8997,,,,,,,,10.1002/1521-396X(200202)189:3<877::AID-PSSA877>3.0.CO;2-G
71.5,9.5,0,2,9,0,0,4,1,0,0,0,0,0,0,0,3,0,0,0,0,0,0,0,0,773,3600,,,,0,0,25,0.849502,,,,,,,,10.1002/1521-396X(200202)189:3<877::AID-PSSA877>3.0.CO;2-G
72.5,13.5,0,0,9,0,0,1,1,0,0,0,0,0,0,0,3,0,0,0,0,0,0,0,0,728,3600,,,,0,0,25,0.724293,,,,,,,,10.1002/1521-396X(200202)189:3<877::AID-PSSA877>3.0.CO;2-G
73.5,13.5,0,0,9,0,0,0,1,0,0,0,0,0,0,0,3,0,0,0,0,0,0,0,0,728,3600,,,,0,0,25,0.659365,,,,,,,,10.1002/1521-396X(200202)189:3<877::AID-PSSA877>3.0.CO;2-G
71.5,9.5,0,2,9,0,0,4,1,0,0,0,0,0,0,0,3,0,0,0,0,0,0,0,0,813,3600,,,,0,0,25,0.530089,,,,,,,,10.1002/1521-396X(200202)189:3<877::AID-PSSA877>3.0.CO;2-G
73.5,13.5,0,0,9,0,0,0,1,0,0,0,0,0,0,0,3,0,0,0,0,0,0,0,0,813,3600,,,,0,0,25,0.454348,,,,,,,,10.1002/1521-396X(200202)189:3<877::AID-PSSA877>3.0.CO;2-G
73.5,13.5,0,0,9,0,0,0,1,0,0,0,0,0,0,0,3,0,0,0,0,0,0,0,0,833,3600,,,,0,0,25,0.444237,,,,,,,,10.1002/1521-396X(200202)189:3<877::AID-PSSA877>3.0.CO;2-G
73.5,13.5,0,0,7,0,0,2,1,0,0,0,0,0,0,0,3,0,0,0,0,0,0,0,0,813,3600,,,,0,0,25,0.355968,,,,,,,,10.1002/1521-396X(200202)189:3<877::AID-PSSA877>3.0.CO;2-G
72.5,13.5,0,0,9,0,0,1,1,0,0,0,0,0,0,0,3,0,0,0,0,0,0,0,0,813,3600,,,,0,0,25,0.324078,,,,,,,,10.1002/1521-396X(200202)189:3<877::AID-PSSA877>3.0.CO;2-G
73.5,13.5,0,0,7,0,0,2,1,0,0,0,0,0,0,0,3,0,0,0,0,0,0,0,0,833,3600,,,,0,0,25,0.226014,,,,,,,,10.1002/1521-396X(200202)189:3<877::AID-PSSA877>3.0.CO;2-G
72.5,13.5,0,0,9,0,0,1,1,0,0,0,0,0,0,0,3,0,0,0,0,0,0,0,0,773,3600,,,,0,0,25,0.189456,,,,,,,,10.1002/1521-396X(200202)189:3<877::AID-PSSA877>3.0.CO;2-G
73.5,13.5,0,0,7,0,0,2,1,0,0,0,0,0,0,0,3,0,0,0,0,0,0,0,0,773,3600,,,,0,0,25,0.179082,,,,,,,,10.1002/1521-396X(200202)189:3<877::AID-PSSA877>3.0.CO;2-G
73.5,13.5,0,0,9,0,0,0,1,0,0,0,0,0,0,0,3,0,0,0,0,0,0,0,0,773,3600,,,,0,0,25,0.163039,,,,,,,,10.1002/1521-396X(200202)189:3<877::AID-PSSA877>3.0.CO;2-G
72.5,13.5,0,0,9,0,0,1,1,0,0,0,0,0,0,0,3,0,0,0,0,0,0,0,0,833,3600,,,,0,0,25,0.131136,,,,,,,,10.1002/1521-396X(200202)189:3<877::AID-PSSA877>3.0.CO;2-G
73,11,0,0,9,0,4,0,0,0,0,0,0,0,0,0,3,0,0,0,0,0,0,0,0,873,3600,,785,965,0,0,25,27.0144,,,,,,,,10.1016/0921-5093(94)90259-3
73,11,0,0,9,0,4,0,0,0,0,0,0,0,0,0,3,0,0,0,0,0,0,0,0,723,3600,,785,965,0,0,25,4.51175,,,,,,,,10.1016/0921-5093(94)90259-3
73,11,0,0,9,0,4,0,0,0,0,0,0,0,0,0,3,0,0,0,0,0,0,0,0,748,3600,,785,965,0,0,25,2.14818,,,,,,,,10.1016/0921-5093(94)90259-3
73,11,0,0,9,0,4,0,0,0,0,0,0,0,0,0,3,0,0,0,0,0,0,0,0,848,3600,,785,965,0,0,25,1.76507,,,,,,,,10.1016/0921-5093(94)90259-3
73,11,0,0,9,0,4,0,0,0,0,0,0,0,0,0,3,0,0,0,0,0,0,0,0,823,3600,,785,965,0,0,25,1.45029,,,,,,,,10.1016/0921-5093(94)90259-3
73,11,0,0,9,0,4,0,0,0,0,0,0,0,0,0,3,0,0,0,0,0,0,0,0,798,3600,,785,965,0,0,25,1.04538,,,,,,,,10.1016/0921-5093(94)90259-3
73,11,0,0,9,0,4,0,0,0,0,0,0,0,0,0,3,0,0,0,0,0,0,0,0,773,3600,,785,965,0,0,25,1.03403,,,,,,,,10.1016/0921-5093(94)90259-3
73.5,13.5,0,0,9,0,0,0,1,0,0,0,0,0,0,0,3,0,0,0,0,0,0,0,0,813,1800,,,,0,0,20,1.19605,,296.874,,86518.5,,1.25,12.5,10.1016/j.jallcom.2006.12.133
73.5,13.5,0,0,9,0,0,0,1,0,0,0,0,1,0,0,2,0,0,0,0,0,0,0,0,833,1800,,,,0,0,20,0.9,,274.818,,94814.8,,1.23958,12.0096,10.1016/j.jallcom.2006.12.133
73.5,13.5,0,0,9,0,0,0,1,0,0,0,0,2,0,0,1,0,0,0,0,0,0,0,0,833,1800,,,,0,0,20,0.544737,,197.61,,125630,,1.28819,9.00962,10.1016/j.jallcom.2006.12.133
73.5,13.5,0,0,9,0,0,0,1,0,0,0,0,1.5,0,0,1.5,0,0,0,0,0,0,0,0,833,1800,,,,0,0,20,0.788158,,234.989,,135111,,1.26042,11,10.1016/j.jallcom.2006.12.133
73.5,15.5,0,0,7,0,0,0,1,0,0,0,0,0,0,0,3,0,0,0,0,0,0,0,0,823,3600,,,,0,1,22,0.75,,338.918,,,,1.18,,10.1016/j.pnsc.2017.09.002
73.5,15.5,0,0,7,0,0,0,1,0,0,0,0,0,0,0,3,0,0,0,0,0,0,0,0,823,3600,,,,0,1,18,0.72,,331.87,,,,1.18,,10.1016/j.pnsc.2017.09.002
73.5,15.5,0,0,7,0,0,0,1,0,0,0,0,0,0,0,3,0,0,0,0,0,0,0,0,823,3600,,,,0,1,14,0.65,,161.366,,,,1.18,,10.1016/j.pnsc.2017.09.002
75.3,13,0,0,9,0,0,0,1,0,0,0,0,0,0,1.7,0,0,0,0,0,0,0,0,0,923,3600,,725,845,0,0,25,1550.99,,,1.78815,,,,,10.1016/S0304-8853(01)00349-3
75.3,13,0,0,9,0,0,0,1,0,0,0,0,0,0,1.7,0,0,0,0,0,0,0,0,0,848,3600,,725,845,0,0,25,14.1884,,,1.80851,,,,,10.1016/S0304-8853(01)00349-3
75.3,13,0,0,9,0,0,0,1,0,0,0,0,0,0,1.7,0,0,0,0,0,0,0,0,0,598,3600,,725,845,0,0,25,7.13824,,,2.01807,,,,,10.1016/S0304-8853(01)00349-3
75.3,13,0,0,9,0,0,0,1,0,0,0,0,0,0,1.7,0,0,0,0,0,0,0,0,0,873,3600,,725,845,0,0,25,7.00332,,,1.78912,,,,,10.1016/S0304-8853(01)00349-3
75.3,13,0,0,9,0,0,0,1,0,0,0,0,0,0,1.7,0,0,0,0,0,0,0,0,0,499,3600,,725,845,0,0,25,5.57001,,,2.00877,,,,,10.1016/S0304-8853(01)00349-3
75.3,13,0,0,9,0,0,0,1,0,0,0,0,0,0,1.7,0,0,0,0,0,0,0,0,0,548,3600,,725,845,0,0,25,5.57001,,,1.98745,,,,,10.1016/S0304-8853(01)00349-3
75.3,13,0,0,9,0,0,0,1,0,0,0,0,0,0,1.7,0,0,0,0,0,0,0,0,0,423,3600,,725,845,0,0,25,4.87355,,,2.00842,,,,,10.1016/S0304-8853(01)00349-3
75.3,13,0,0,9,0,0,0,1,0,0,0,0,0,0,1.7,0,0,0,0,0,0,0,0,0,448,3600,,725,845,0,0,25,4.87355,,,1.97815,,,,,10.1016/S0304-8853(01)00349-3
75.3,13,0,0,9,0,0,0,1,0,0,0,0,0,0,1.7,0,0,0,0,0,0,0,0,0,648,3600,,725,845,0,0,25,4.78143,,,1.97306,,,,,10.1016/S0304-8853(01)00349-3
75.3,13,0,0,9,0,0,0,1,0,0,0,0,0,0,1.7,0,0,0,0,0,0,0,0,0,698,3600,,725,845,0,0,25,4.78143,,,1.98851,,,,,10.1016/S0304-8853(01)00349-3
75.3,13,0,0,9,0,0,0,1,0,0,0,0,0,0,1.7,0,0,0,0,0,0,0,0,0,773,3600,,725,845,0,0,25,4.78143,,,1.8993,,,,,10.1016/S0304-8853(01)00349-3
75.3,13,0,0,9,0,0,0,1,0,0,0,0,0,0,1.7,0,0,0,0,0,0,0,0,0,523,3600,,725,845,0,0,25,4.02691,,,1.96789,,,,,10.1016/S0304-8853(01)00349-3
75.3,13,0,0,9,0,0,0,1,0,0,0,0,0,0,1.7,0,0,0,0,0,0,0,0,0,623,3600,,725,845,0,0,25,3.9508,,,2.00825,,,,,10.1016/S0304-8853(01)00349-3
75.3,13,0,0,9,0,0,0,1,0,0,0,0,0,0,1.7,0,0,0,0,0,0,0,0,0,673,3600,,725,845,0,0,25,3.9508,,,1.9821,,,,,10.1016/S0304-8853(01)00349-3
75.3,13,0,0,9,0,0,0,1,0,0,0,0,0,0,1.7,0,0,0,0,0,0,0,0,0,748,3600,,725,845,0,0,25,3.9508,,,1.98438,,,,,10.1016/S0304-8853(01)00349-3
75.3,13,0,0,9,0,0,0,1,0,0,0,0,0,0,1.7,0,0,0,0,0,0,0,0,0,799,3600,,725,845,0,0,25,3.9508,,,1.82886,,,,,10.1016/S0304-8853(01)00349-3
75.3,13,0,0,9,0,0,0,1,0,0,0,0,0,0,1.7,0,0,0,0,0,0,0,0,0,823,3600,,725,845,0,0,25,3.14223,,,1.82368,,,,,10.1016/S0304-8853(01)00349-3
73.5,15.5,0,0,3,4,0,0,1,0,0,0,0,0,0,0,3,0,0,0,0,0,0,0,0,813,1800,,830,895,0,0,20,6.3662,,,,,,0.69,,10.1016/S0921-4526(02)01741-6
73.5,15.5,0,0,6,1,0,0,1,0,0,0,0,0,0,0,3,0,0,0,0,0,0,0,0,813,1800,,824,963,0,0,20,3.1831,,,,,,0.93,,10.1016/S0921-4526(02)01741-6
73.5,15.5,0,0,5,2,0,0,1,0,0,0,0,0,0,0,3,0,0,0,0,0,0,0,0,813,1800,,823,924,0,0,20,3.02394,,,,,,0.78,,10.1016/S0921-4526(02)01741-6
73.5,15.5,0,0,4,3,0,0,1,0,0,0,0,0,0,0,3,0,0,0,0,0,0,0,0,813,1800,,823,916,0,0,20,2.78521,,,,,,0.67,,10.1016/S0921-4526(02)01741-6
73.5,15.5,0,0,7,0,0,0,1,0,0,0,0,0,0,0,3,0,0,0,0,0,0,0,0,813,1800,,824,999,0,0,20,1.59155,,,,,,1.01,,10.1016/S0921-4526(02)01741-6
73.5,13.5,0,0,9,0,0,0,1,0,0,0,0,0,0,0,3,0,0,0,0,0,0,0,0,823,1800,,,,0,0,21,,,,,,3.4234,,,10.1016/S0921-5093(97)80078-0
73.5,13.5,0,0,9,0,0,0,1,0,0,0,0,0,0,0,3,0,0,0,0,0,0,0,0,823,3600,,,,0,0,21,,,,,,3.11842,,,10.1016/S0921-5093(97)80078-0
73.5,13.5,0,0,9,0,0,0,1,0,0,0,0,0,0,0,3,0,0,0,0,0,0,0,0,573,3600,,,,0,0,21,,,,,,26.8155,,,10.1016/S0921-5093(97)80078-0
73.5,13.5,0,0,9,0,0,0,1,0,0,0,0,0,0,0,3,0,0,0,0,0,0,0,0,623,3600,,,,0,0,21,,,,,,24.7447,,,10.1016/S0921-5093(97)80078-0
73.5,13.5,0,0,9,0,0,0,1,0,0,0,0,0,0,0,3,0,0,0,0,0,0,0,0,673,3600,,,,0,0,21,,,,,,24.9186,,,10.1016/S0921-5093(97)80078-0
73.5,13.5,0,0,9,0,0,0,1,0,0,0,0,0,0,0,3,0,0,0,0,0,0,0,0,693,3600,,,,0,0,21,,,,,,24.1522,,,10.1016/S0921-5093(97)80078-0
73.5,13.5,0,0,9,0,0,0,1,0,0,0,0,0,0,0,3,0,0,0,0,0,0,0,0,713,3600,,,,0,0,21,,,,,,23.9277,,,10.1016/S0921-5093(97)80078-0
73.5,13.5,0,0,9,0,0,0,1,0,0,0,0,0,0,0,3,0,0,0,0,0,0,0,0,723,3600,,,,0,0,21,,,,,,25.7897,,,10.1016/S0921-5093(97)80078-0
73.5,13.5,0,0,9,0,0,0,1,0,0,0,0,0,0,0,3,0,0,0,0,0,0,0,0,733,3600,,,,0,0,21,,,,,,25.948,,,10.1016/S0921-5093(97)80078-0
73.5,13.5,0,0,9,0,0,0,1,0,0,0,0,0,0,0,3,0,0,0,0,0,0,0,0,743,3600,,,,0,0,21,,,,,,24.9069,,,10.1016/S0921-5093(97)80078-0
73.5,13.5,0,0,9,0,0,0,1,0,0,0,0,0,0,0,3,0,0,0,0,0,0,0,0,753,3600,,,,0,0,21,,,,,,22.0077,,,10.1016/S0921-5093(97)80078-0
73.5,13.5,0,0,9,0,0,0,1,0,0,0,0,0,0,0,3,0,0,0,0,0,0,0,0,763,3600,,,,0,0,21,,,,,,18.8371,,,10.1016/S0921-5093(97)80078-0
73.5,13.5,0,0,9,0,0,0,1,0,0,0,0,0,0,0,3,0,0,0,0,0,0,0,0,773,3600,,,,0,0,21,,,,,,12.299,,,10.1016/S0921-5093(97)80078-0
73.5,13.5,0,0,9,0,0,0,1,0,0,0,0,0,0,0,3,0,0,0,0,0,0,0,0,793,3600,,,,0,0,21,,,,,,7.15828,,,10.1016/S0921-5093(97)80078-0
73.5,13.5,0,0,9,0,0,0,1,0,0,0,0,0,0,0,3,0,0,0,0,0,0,0,0,793,3600,,,,0,0,21,,,,,,7.04228,,,10.1016/S0921-5093(97)80078-0
73.5,13.5,0,0,9,0,0,0,1,0,0,0,0,0,0,0,3,0,0,0,0,0,0,0,0,823,3600,,,,0,0,21,,,,,,3.06685,,,10.1016/S0921-5093(97)80078-0
73.5,13.5,0,0,9,0,0,0,1,0,0,0,0,0,0,0,3,0,0,0,0,0,0,0,0,873,3600,,,,0,0,21,,,,,,2.19612,,,10.1016/S0921-5093(97)80078-0
73.5,13.5,0,0,9,0,0,0,1,0,0,0,0,0,0,0,3,0,0,0,0,0,0,0,0,823,12000,,,,0,0,21,,,,,,2.46062,,,10.1016/S0921-5093(97)80078-0
73.5,13.5,0,0,9,0,0,0,1,0,0,0,0,0,0,0,3,0,0,0,0,0,0,0,0,823,18000,,,,0,0,21,,,,,,2.13326,,,10.1016/S0921-5093(97)80078-0
73.5,13.5,0,0,9,0,0,0,1,0,0,0,0,0,0,0,3,0,0,0,0,0,0,0,0,823,54000,,,,0,0,21,,,,,,2.13126,,,10.1016/S0921-5093(97)80078-0
84.3,4,0,0,8,3,0,0,0.7,0,0,0,0,0,0,0,0,0,0,0,0,0,0,0,0,748,600,,,,0,0,20,10.6384,,,,16000,3,1.94,17,10.1063/1.30586
83.3,4,0,0,8,4,0,0,0.7,0,0,0,0,0,0,0,0,0,0,0,0,0,0,0,0,748,600,,,,0,0,20,6.55764,,,,25000,2,1.88,10,10.1063/1.30586
83.3,4,0,0,12,0,0,0,0.7,0,0,0,0,0,0,0,0,0,0,0,0,0,0,0,0,773,600,,,,0,0,20,1856.98,,,,,,,,10.1063/1.30586
84.3,4,0,0,8,3,0,0,0.7,0,0,0,0,0,0,0,0,0,0,0,0,0,0,0,0,798,600,,,,0,0,20,1115.22,,,,,,,,10.1063/1.30586
83.3,4,0,0,8,4,0,0,0.7,0,0,0,0,0,0,0,0,0,0,0,0,0,0,0,0,798,600,,,,0,0,20,997.368,,,,,,,,10.1063/1.30586
83.3,4,0,0,12,0,0,0,0.7,0,0,0,0,0,0,0,0,0,0,0,0,0,0,0,0,748,600,,,,0,0,20,697.722,,,,,,,,10.1063/1.30586
84.3,4,0,0,8,3,0,0,0.7,0,0,0,0,0,0,0,0,0,0,0,0,0,0,0,0,773,600,,,,0,0,20,131.204,,,,,,,,10.1063/1.30586
84.3,4,0,0,8,3,0,0,0.7,0,0,0,0,0,0,0,0,0,0,0,0,0,0,0,0,698,600,,,,0,0,20,114.331,,,,,,,,10.1063/1.30586
83.3,4,0,0,12,0,0,0,0.7,0,0,0,0,0,0,0,0,0,0,0,0,0,0,0,0,723,600,,,,0,0,20,94.5578,,,,,,,,10.1063/1.30586
83.3,4,0,0,8,4,0,0,0.7,0,0,0,0,0,0,0,0,0,0,0,0,0,0,0,0,773,600,,,,0,0,20,72.3286,,,,,,,,10.1063/1.30586
83.3,4,0,0,8,4,0,0,0.7,0,0,0,0,0,0,0,0,0,0,0,0,0,0,0,0,698,600,,,,0,0,20,29.7173,,,,,,,,10.1063/1.30586
84.3,4,0,0,8,3,0,0,0.7,0,0,0,0,0,0,0,0,0,0,0,0,0,0,0,0,723,600,,,,0,0,20,9.76617,,,,,,,,10.1063/1.30586
83.3,4,0,0,8,4,0,0,0.7,0,0,0,0,0,0,0,0,0,0,0,0,0,0,0,0,723,600,,,,0,0,20,7.98774,,,,,,,,10.1063/1.30586
74.5,13.5,0,0,9,0,0,0,0,0,0,0,0,0,0,0,3,0,0,0,0,0,0,0,0,763,3600,,,,0,0,17.5,1.5,,1231,,1.00E+04,,1.28,,10.1063/1.342149
74,13.5,0,0,9,0,0,0,0.5,0,0,0,0,0,0,0,3,0,0,0,0,0,0,0,0,843,3600,,,,0,0,17.5,0.9788,,305.57,,5.32E+04,,1.2553,,10.1063/1.342149
73.5,16.5,0,0,6,0,0,0,1,0,0,0,0,0,0,0,3,0,0,0,0,0,0,0,0,853,3600,,,,0,0,17.5,1.1,833,280,,75000,,1.18,,10.1063/1.342149
73.5,13.5,0,0,9,0,0,0,1,0,0,0,0,0,0,0,3,0,0,0,0,0,0,0,0,853,3600,,,,0,0,17.5,0.5551,843,280,,1.00E+05,,1.2401,,10.1063/1.342149
73,13.5,0,0,9,0,0,0,1.5,0,0,0,0,0,0,0,3,0,0,0,0,0,0,0,0,833,3600,,,,0,0,17.5,0.6899,,314.68,,1.03E+05,,1.225,,10.1063/1.342149
73.5,13.5,0,0,9,0,0,0,1,0,0,0,0,0,0,0,3,0,0,0,0,0,0,0,0,723,3600,,,,0,0,17.5,,,,,,20.2381,,,10.1063/1.342149
73.5,13.5,0,0,9,0,0,0,1,0,0,0,0,0,0,0,3,0,0,0,0,0,0,0,0,743,3600,,,,0,0,17.5,,,,,,18.5238,,,10.1063/1.342149
73.5,13.5,0,0,9,0,0,0,1,0,0,0,0,0,0,0,3,0,0,0,0,0,0,0,0,773,3600,,,,0,0,17.5,,,,,,3.85714,,,10.1063/1.342149
73.5,13.5,0,0,9,0,0,0,1,0,0,0,0,0,0,0,3,0,0,0,0,0,0,0,0,823,3600,,,,0,0,17.5,,,,,,2.80952,,,10.1063/1.342149
73.5,13.5,0,0,9,0,0,0,1,0,0,0,0,0,0,0,3,0,0,0,0,0,0,0,0,843,3600,,,,0,0,17.5,,,,,,2.11111,,,10.1063/1.342149
73.5,13.5,0,0,9,0,0,0,1,0,0,0,0,0,0,0,3,0,0,0,0,0,0,0,0,565,3600,,769,905,0,0,20,0.996129,,,,,2,1.24722,,10.1063/1.352574
73.5,13.5,0,0.1,9,0,0,0,1,0,0,0,0,0,0,0,3,0,0,0,0,0,0,0,0,565,3600,,773,917,0,0,20,0.860179,,,,,,1.11636,,10.1063/1.352574
73.5,13.5,0,0.5,9,0,0,0,1,0,0,0,0,0,0,0,3,0,0,0,0,0,0,0,0,565,3600,,756,913,0,0,20,0.77329,,,,,,1.1097,,10.1063/1.352574
73.5,13.5,0,1,9,0,0,0,1,0,0,0,0,0,0,0,3,0,0,0,0,0,0,0,0,565,3600,,760,916,0,0,20,0.737778,,,,,5,1.07662,,10.1063/1.352574
86,1,0,0,8,4,0,0,1,0,0,0,0,0,0,0,0,0,0,0,0,0,0,0,0,733,600,,,,0,0,20,2.8,1006,,0.67,24000,2.4,1.85,19,10.1063/1.35352
85,2,0,0,8,4,0,0,1,0,0,0,0,0,0,0,0,0,0,0,0,0,0,0,0,733,600,,,,0,0,20,5.95063,1001,892.6634,0.736,27000,2.3,1.81279,16,10.1063/1.35352
86,2,0,0,12,0,0,0,0,0,0,0,0,0,0,0,0,0,0,0,0,0,0,0,0,773,600,,,,0,0,20,6018.87,,,,,,,,10.1063/1.35352
86,2,0,0,12,0,0,0,0,0,0,0,0,0,0,0,0,0,0,0,0,0,0,0,0,753,600,,,,0,0,20,4844.46,,,,,,,,10.1063/1.35352
85,2,0,0,12,0,0,0,1,0,0,0,0,0,0,0,0,0,0,0,0,0,0,0,0,773,600,,,,0,0,20,4645.8,,,,,,,,10.1063/1.35352
86,2,0,0,8,4,0,0,0,0,0,0,0,0,0,0,0,0,0,0,0,0,0,0,0,773,600,,,,0,0,20,4588.34,,,,,,,,10.1063/1.35352
86,2,0,0,8,4,0,0,0,0,0,0,0,0,0,0,0,0,0,0,0,0,0,0,0,753,600,,,,0,0,20,4126.46,,,,,,,,10.1063/1.35352
85,2,0,0,8,4,0,0,1,0,0,0,0,0,0,0,0,0,0,0,0,0,0,0,0,773,600,,,,0,0,20,4056.31,,,,,,,,10.1063/1.35352
85,2,0,0,12,0,0,0,1,0,0,0,0,0,0,0,0,0,0,0,0,0,0,0,0,743,600,,,,0,0,20,3702.15,,,,,,,,10.1063/1.35352
86,2,0,0,12,0,0,0,0,0,0,0,0,0,0,0,0,0,0,0,0,0,0,0,0,743,600,,,,0,0,20,2022.79,,,,,,,,10.1063/1.35352
86,2,0,0,8,4,0,0,0,0,0,0,0,0,0,0,0,0,0,0,0,0,0,0,0,743,600,,,,0,0,20,1997.99,,,,,,,,10.1063/1.35352
85,2,0,0,12,0,0,0,1,0,0,0,0,0,0,0,0,0,0,0,0,0,0,0,0,733,600,,,,0,0,20,1706.24,,,,,,,,10.1063/1.35352
86,2,0,0,12,0,0,0,0,0,0,0,0,0,0,0,0,0,0,0,0,0,0,0,0,733,600,,,,0,0,20,898.292,,,,,,,,10.1063/1.35352
86,2,0,0,12,0,0,0,0,0,0,0,0,0,0,0,0,0,0,0,0,0,0,0,0,723,600,,,,0,0,20,796.045,,,,,,,,10.1063/1.35352
86,2,0,0,8,4,0,0,0,0,0,0,0,0,0,0,0,0,0,0,0,0,0,0,0,733,600,,,,0,0,20,784.354,,,,,,,,10.1063/1.35352
86,2,0,0,12,0,0,0,0,0,0,0,0,0,0,0,0,0,0,0,0,0,0,0,0,713,600,,,,0,0,20,778.559,,,,,,,,10.1063/1.35352
86,2,0,0,8,4,0,0,0,0,0,0,0,0,0,0,0,0,0,0,0,0,0,0,0,723,600,,,,0,0,20,678.1,,,,,,,,10.1063/1.35352
86,2,0,0,8,4,0,0,0,0,0,0,0,0,0,0,0,0,0,0,0,0,0,0,0,713,600,,,,0,0,20,615.891,,,,,,,,10.1063/1.35352
86,2,0,0,8,4,0,0,0,0,0,0,0,0,0,0,0,0,0,0,0,0,0,0,0,703,600,,,,0,0,20,594.978,,,,,,,,10.1063/1.35352
86,2,0,0,12,0,0,0,0,0,0,0,0,0,0,0,0,0,0,0,0,0,0,0,0,693,600,,,,0,0,20,567.759,,,,,,,,10.1063/1.35352
86,2,0,0,12,0,0,0,0,0,0,0,0,0,0,0,0,0,0,0,0,0,0,0,0,688,600,,,,0,0,20,444.162,,,,,,,,10.1063/1.35352
85,2,0,0,12,0,0,0,1,0,0,0,0,0,0,0,0,0,0,0,0,0,0,0,0,723,600,,,,0,0,20,370.501,,,,,,,,10.1063/1.35352
86,2,0,0,8,4,0,0,0,0,0,0,0,0,0,0,0,0,0,0,0,0,0,0,0,693,600,,,,0,0,20,368.669,,,,,,,,10.1063/1.35352
85,2,0,0,12,0,0,0,1,0,0,0,0,0,0,0,0,0,0,0,0,0,0,0,0,713,600,,,,0,0,20,259.716,,,,,,,,10.1063/1.35352
86,2,0,0,8,4,0,0,0,0,0,0,0,0,0,0,0,0,0,0,0,0,0,0,0,688,600,,,,0,0,20,254.957,,,,,,,,10.1063/1.35352
85,2,0,0,12,0,0,0,1,0,0,0,0,0,0,0,0,0,0,0,0,0,0,0,0,703,600,,,,0,0,20,208.514,,,,,,,,10.1063/1.35352
86,2,0,0,12,0,0,0,0,0,0,0,0,0,0,0,0,0,0,0,0,0,0,0,0,673,600,,,,0,0,20,199.957,,,,,,,,10.1063/1.35352
86,2,0,0,8,4,0,0,0,0,0,0,0,0,0,0,0,0,0,0,0,0,0,0,0,673,600,,,,0,0,20,138.108,,,,,,,,10.1063/1.35352
85,2,0,0,12,0,0,0,1,0,0,0,0,0,0,0,0,0,0,0,0,0,0,0,0,693,600,,,,0,0,20,117.062,,,,,,,,10.1063/1.35352
86,2,0,0,12,0,0,0,0,0,0,0,0,0,0,0,0,0,0,0,0,0,0,0,0,623,600,,,,0,0,20,113.367,,,,,,,,10.1063/1.35352
85,2,0,0,8,4,0,0,1,0,0,0,0,0,0,0,0,0,0,0,0,0,0,0,0,753,600,,,,0,0,20,94.8012,,,0.67351,,,1.42251,,10.1063/1.35352
85,2,0,0,12,0,0,0,1,0,0,0,0,0,0,0,0,0,0,0,0,0,0,0,0,688,600,,,,0,0,20,82.9771,,,,,,,,10.1063/1.35352
85,2,0,0,12,0,0,0,1,0,0,0,0,0,0,0,0,0,0,0,0,0,0,0,0,673,600,,,,0,0,20,77.3445,,,,,,,,10.1063/1.35352
86,2,0,0,8,4,0,0,0,0,0,0,0,0,0,0,0,0,0,0,0,0,0,0,0,623,600,,,,0,0,20,42.7825,,,,,,,,10.1063/1.35352
85,2,0,0,12,0,0,0,1,0,0,0,0,0,0,0,0,0,0,0,0,0,0,0,0,623,600,,,,0,0,20,38.287,,,,,,,,10.1063/1.35352
85,2,0,0,8,4,0,0,1,0,0,0,0,0,0,0,0,0,0,0,0,0,0,0,0,748,600,,,,0,0,20,18.0242,,,0.699338,,,1.58476,,10.1063/1.35352
85,2,0,0,8,4,0,0,1,0,0,0,0,0,0,0,0,0,0,0,0,0,0,0,0,703,600,,,,0,0,20,13.8549,,,0.750993,,,1.47619,,10.1063/1.35352
85,2,0,0,8,4,0,0,1,0,0,0,0,0,0,0,0,0,0,0,0,0,0,0,0,743,600,,,,0,0,20,12.2455,,,0.707285,,,1.79655,,10.1063/1.35352
85,2,0,0,8,4,0,0,1,0,0,0,0,0,0,0,0,0,0,0,0,0,0,0,0,713,600,,,,0,0,20,12.1985,,,0.74106,,,1.71316,,10.1063/1.35352
85,2,0,0,8,4,0,0,1,0,0,0,0,0,0,0,0,0,0,0,0,0,0,0,0,718,600,,,,0,0,20,9.93549,,,,,,1.75733,,10.1063/1.35352
85,2,0,0,8,4,0,0,1,0,0,0,0,0,0,0,0,0,0,0,0,0,0,0,0,723,600,,,,0,0,20,8.96966,,,0.729139,,,1.78224,,10.1063/1.35352
85,2,0,0,8,4,0,0,1,0,0,0,0,0,0,0,0,0,0,0,0,0,0,0,0,693,600,,,,0,0,20,8.70833,,,,,,1.54471,,10.1063/1.35352
85,2,0,0,8,4,0,0,1,0,0,0,0,0,0,0,0,0,0,0,0,0,0,0,0,738,600,,,,0,0,20,7.40996,,,,,,1.81568,,10.1063/1.35352
85,2,0,0,8,4,0,0,1,0,0,0,0,0,0,0,0,0,0,0,0,0,0,0,0,688,600,,,,0,0,20,7.26845,,,0.75894,,,1.5776,,10.1063/1.35352
85,2,0,0,8,4,0,0,1,0,0,0,0,0,0,0,0,0,0,0,0,0,0,0,0,728,600,,,,0,0,20,6.93941,,,,,,1.81265,,10.1063/1.35352
85,2,0,0,8,4,0,0,1,0,0,0,0,0,0,0,0,0,0,0,0,0,0,0,0,673,600,,,,0,0,20,5.75465,,,0.75894,,,1.55243,,10.1063/1.35352
85,2,0,0,8,4,0,0,1,0,0,0,0,0,0,0,0,0,0,0,0,0,0,0,0,648,600,,,,0,0,20,5.58877,,,0.768874,,,1.51045,,10.1063/1.35352
85,2,0,0,8,4,0,0,1,0,0,0,0,0,0,0,0,0,0,0,0,0,0,0,0,623,600,,,,0,0,20,4.90008,,,0.796689,,,1.50151,,10.1063/1.35352
84,4,0,0,8,4,0,0,0,0,0,0,0,0,0,0,0,0,0,0,0,0,0,0,0,763,1800,,701,808,0,0,22.5,627.231,,,,,,,,10.1063/1.35353
84,4,0,0,8,4,0,0,0,0,0,0,0,0,0,0,0,0,0,0,0,0,0,0,0,663,1800,,701,808,0,0,22.5,618.012,,,,,,,,10.1063/1.35353
84,4,0,0,8,4,0,0,0,0,0,0,0,0,0,0,0,0,0,0,0,0,0,0,0,743,1800,,701,808,0,0,22.5,599.978,,,,,,,,10.1063/1.35353
84,4,0,0,8,4,0,0,0,0,0,0,0,0,0,0,0,0,0,0,0,0,0,0,0,683,1800,,701,808,0,0,22.5,573.908,,,,,,,,10.1063/1.35353
84,4,0,0,8,4,0,0,0,0,0,0,0,0,0,0,0,0,0,0,0,0,0,0,0,703,1800,,701,808,0,0,22.5,548.972,,,,,,,,10.1063/1.35353
84,4,0,0,8,4,0,0,0,0,0,0,0,0,0,0,0,0,0,0,0,0,0,0,0,723,1800,,701,808,0,0,22.5,494.919,,,,,,1.81617,53.0955,10.1063/1.35353
84,4,0,0,8,4,0,0,0,0,0,0,0,0,0,0,0,0,0,0,0,0,0,0,0,643,1800,,701,808,0,0,22.5,172.959,,,,,,,,10.1063/1.35353
83.25,4,0,0,8,4,0,0,0.75,0,0,0,0,0,0,0,0,0,0,0,0,0,0,0,0,763,1800,,673,810,0,0,22.5,114.256,,,,,,,,10.1063/1.35353
82.5,4,0,0,8,4,0,0,1.5,0,0,0,0,0,0,0,0,0,0,0,0,0,0,0,0,763,1800,,666,808,0,0,22.5,83.7201,,,,,,,,10.1063/1.35353
82.75,4,0,0,8,4,0,0,1.25,0,0,0,0,0,0,0,0,0,0,0,0,0,0,0,0,763,1800,,671,810,0,0,22.5,72.1973,,,,,,,,10.1063/1.35353
83.25,4,0,0,8,4,0,0,0.75,0,0,0,0,0,0,0,0,0,0,0,0,0,0,0,0,643,1800,,673,810,0,0,22.5,65.0886,,,,,,,,10.1063/1.35353
83.25,4,0,0,8,4,0,0,0.75,0,0,0,0,0,0,0,0,0,0,0,0,0,0,0,0,623,1800,,673,810,0,0,22.5,57.8173,,,,,,,,10.1063/1.35353
83.25,4,0,0,8,4,0,0,0.75,0,0,0,0,0,0,0,0,0,0,0,0,0,0,0,0,663,1800,,673,810,0,0,22.5,56.1301,,,,,,,,10.1063/1.35353
84,4,0,0,8,4,0,0,0,0,0,0,0,0,0,0,0,0,0,0,0,0,0,0,0,623,1800,,701,808,0,0,22.5,55.3051,,,,,,,,10.1063/1.35353
82.5,4,0,0,8,4,0,0,1.5,0,0,0,0,0,0,0,0,0,0,0,0,0,0,0,0,643,1800,,666,808,0,0,22.5,45.6209,,,,,,,,10.1063/1.35353
82.5,4,0,0,8,4,0,0,1.5,0,0,0,0,0,0,0,0,0,0,0,0,0,0,0,0,623,1800,,666,808,0,0,22.5,44.9504,,,,,,,,10.1063/1.35353
82.75,4,0,0,8,4,0,0,1.25,0,0,0,0,0,0,0,0,0,0,0,0,0,0,0,0,643,1800,,671,810,0,0,22.5,44.9504,,,,,,,,10.1063/1.35353
82.5,4,0,0,8,4,0,0,1.5,0,0,0,0,0,0,0,0,0,0,0,0,0,0,0,0,663,1800,,666,808,0,0,22.5,44.2897,,,,,,,,10.1063/1.35353
82.75,4,0,0,8,4,0,0,1.25,0,0,0,0,0,0,0,0,0,0,0,0,0,0,0,0,623,1800,,671,810,0,0,22.5,38.1939,,,,,,,,10.1063/1.35353
82.75,4,0,0,8,4,0,0,1.25,0,0,0,0,0,0,0,0,0,0,0,0,0,0,0,0,663,1800,,671,810,0,0,22.5,37.0793,,,,,,,,10.1063/1.35353
82.5,4,0,0,8,4,0,0,1.5,0,0,0,0,0,0,0,0,0,0,0,0,0,0,0,0,683,1800,,666,808,0,0,22.5,31.0428,,,,,,,,10.1063/1.35353
83.25,4,0,0,8,4,0,0,0.75,0,0,0,0,0,0,0,0,0,0,0,0,0,0,0,0,743,1800,,673,810,0,0,22.5,30.5866,,,,,,,,10.1063/1.35353
82.75,4,0,0,8,4,0,0,1.25,0,0,0,0,0,0,0,0,0,0,0,0,0,0,0,0,743,1800,,671,810,0,0,22.5,30.5866,,,,,,,,10.1063/1.35353
82.5,4,0,0,8,4,0,0,1.5,0,0,0,0,0,0,0,0,0,0,0,0,0,0,0,0,743,1800,,666,808,0,0,22.5,29.2575,,,,,,,,10.1063/1.35353
82.75,4,0,0,8,4,0,0,1.25,0,0,0,0,0,0,0,0,0,0,0,0,0,0,0,0,683,1800,,671,810,0,0,22.5,26.7703,,,,,,,,10.1063/1.35353
82.5,4,0,0,8,4,0,0,1.5,0,0,0,0,0,0,0,0,0,0,0,0,0,0,0,0,703,1800,,666,808,0,0,22.5,25.9891,,,,,,,,10.1063/1.35353
83.25,4,0,0,8,4,0,0,0.75,0,0,0,0,0,0,0,0,0,0,0,0,0,0,0,0,683,1800,,673,810,0,0,22.5,21.7581,,,,,,,,10.1063/1.35353
82.75,4,0,0,8,4,0,0,1.25,0,0,0,0,0,0,0,0,0,0,0,0,0,0,0,0,703,1800,,671,810,0,0,22.5,13.7488,,,,,,,,10.1063/1.35353
83.25,4,0,0,8,4,0,0,0.75,0,0,0,0,0,0,0,0,0,0,0,0,0,0,0,0,723,1800,,673,810,0,0,22.5,4.59599,,,,,,1.81279,17.096,10.1063/1.35353
83.5,4,0,0,8,4,0,0,0.5,0,0,0,0,0,0,0,0,0,0,0,0,0,0,0,0,723,1800,,675,810,0,0,22.5,4.50396,,,,,,1.80977,22.8197,10.1063/1.35353
83.25,4,0,0,8,4,0,0,0.75,0,0,0,0,0,0,0,0,0,0,0,0,0,0,0,0,703,1800,,673,810,0,0,22.5,4.08256,,,,,,,,10.1063/1.35353
82.5,4,0,0,8,4,0,0,1.5,0,0,0,0,0,0,0,0,0,0,0,0,0,0,0,0,723,1800,,666,808,0,0,22.5,3.31818,,,,,,1.81448,16.0631,10.1063/1.35353
83,4,0,0,8,4,0,0,1,0,0,0,0,0,0,0,0,0,0,0,0,0,0,0,0,723,1800,,673,808,0,0,22.5,2.32281,,,,,,1.82089,16.5448,10.1063/1.35353
82.75,4,0,0,8,4,0,0,1.25,0,0,0,0,0,0,0,0,0,0,0,0,0,0,0,0,723,1800,,671,810,0,0,22.5,2.06592,,,,,,1.83181,15.9946,10.1063/1.35353
85,2,0,0,8,4,0,0,1,0,0,0,0,0,0,0,0,0,0,0,0,0,0,0,0,378,300,,,,0,0,20,10.1707,,,,,,,,10.1063/1.48682
85,2,0,0,8,4,0,0,1,0,0,0,0,0,0,0,0,0,0,0,0,0,0,0,0,383,300,,,,0,0,20,9.67778,,,,,,,,10.1063/1.48682
85,2,0,0,8,4,0,0,1,0,0,0,0,0,0,0,0,0,0,0,0,0,0,0,0,698,3000,,,,0,0,20,8.84265,,,,,,,16.7964,10.1063/1.48682
85,2,0,0,8,4,0,0,1,0,0,0,0,0,0,0,0,0,0,0,0,0,0,0,0,393,300,,,,0,0,20,8.78093,,,,,,,,10.1063/1.48682
85,2,0,0,8,4,0,0,1,0,0,0,0,0,0,0,0,0,0,0,0,0,0,0,0,373,300,,,,0,0,20,7.59692,,,,,,,,10.1063/1.48682
85,2,0,0,8,4,0,0,1,0,0,0,0,0,0,0,0,0,0,0,0,0,0,0,0,413,300,,,,0,0,20,7.11849,,,,,,,,10.1063/1.48682
85,2,0,0,8,4,0,0,1,0,0,0,0,0,0,0,0,0,0,0,0,0,0,0,0,698,1800,,,,0,0,20,6.59376,,,,,,,16.832,10.1063/1.48682
85,2,0,0,8,4,0,0,1,0,0,0,0,0,0,0,0,0,0,0,0,0,0,0,0,698,120,,,,0,0,20,6.26315,,,,,,,16.6151,10.1063/1.48682
85,2,0,0,8,4,0,0,1,0,0,0,0,0,0,0,0,0,0,0,0,0,0,0,0,698,300,,,,0,0,20,6.26043,,,,,,,16.0764,10.1063/1.48682
85,2,0,0,8,4,0,0,1,0,0,0,0,0,0,0,0,0,0,0,0,0,0,0,0,698,1200,,,,0,0,20,6.2471,,,,,,,16.4054,10.1063/1.48682
85,2,0,0,8,4,0,0,1,0,0,0,0,0,0,0,0,0,0,0,0,0,0,0,0,698,600,,,,0,0,20,6.03376,,,,,,,16.3343,10.1063/1.48682
74.5,13.5,0,0,9,0,0,0,0,0,0,0,0,0,0,0,3,0,0,0,0,0,0,0,0,823,3600,,,,0,0,20,1363.05,,,,40.1441,,,,10.1109/20.1044
74.5,13.5,0,0,9,0,0,0,0,0,0,0,0,0,0,0,3,0,0,0,0,0,0,0,0,833,3600,,,,0,0,20,1062.07,,,,41.6599,,,,10.1109/20.1044
74.5,13.5,0,0,9,0,0,0,0,0,0,0,0,0,0,0,3,0,0,0,0,0,0,0,0,843,3600,,,,0,0,20,586.76,,,,68.7103,,,,10.1109/20.1044
74.5,13.5,0,0,9,0,0,0,0,0,0,0,0,0,0,0,3,0,0,0,0,0,0,0,0,813,3600,,,,0,0,20,1149.65,,,,107.1966,,,,10.1109/20.1044
74.5,13.5,0,0,9,0,0,0,0,0,0,0,0,0,0,0,3,0,0,0,0,0,0,0,0,813,3600,,,,0,0,20,1144.05,,,,108.1876,,,53.2477,10.1109/20.1044
74.5,13.5,0,0,9,0,0,0,0,0,0,0,0,0,0,0,3,0,0,0,0,0,0,0,0,853,3600,,,,0,0,20,330.42,,,,338.2011,,,,10.1109/20.1044
74.5,13.5,0,0,9,0,0,0,0,0,0,0,0,0,0,0,3,0,0,0,0,0,0,0,0,853,3600,,,,0,0,20,232.79,,,,347.8054,,,29.58,10.1109/20.1044
74.5,13.5,0,0,9,0,0,0,0,0,0,0,0,0,0,0,3,0,0,0,0,0,0,0,0,883,3600,,,,0,0,20,59.01,,,,537.5047,,,,10.1109/20.1044
74.5,13.5,0,0,9,0,0,0,0,0,0,0,0,0,0,0,3,0,0,0,0,0,0,0,0,803,3600,,,,0,0,20,98.07,,,,600.7199,,,,10.1109/20.1044
74.5,13.5,0,0,9,0,0,0,0,0,0,0,0,0,0,0,3,0,0,0,0,0,0,0,0,803,3600,,,,0,0,20,93.29,,,,633.7115,,,25.1013,10.1109/20.1044
74.5,13.5,0,0,9,0,0,0,0,0,0,0,0,0,0,0,3,0,0,0,0,0,0,0,0,853,3600,,,,0,0,20,229.91,,,,646.9418,,,,10.1109/20.1044
73.5,13.5,0,0,9,0,0,0,1,0,0,0,0,0,0,0,3,0,0,0,0,0,0,0,0,880,3600,,,,0,0,20,1160.25,,,,709.752,,,,10.1109/20.1044
73.5,13.5,0,0,9,0,0,0,1,0,0,0,0,0,0,0,3,0,0,0,0,0,0,0,0,863,3600,,,,0,0,20,74.41,,,,4445.159,,,,10.1109/20.1044
73.5,13.5,0,0,9,0,0,0,1,0,0,0,0,0,0,0,3,0,0,0,0,0,0,0,0,753,3600,,,,0,0,20,2.21,,,,5350.203,,,,10.1109/20.1044
74.5,13.5,0,0,9,0,0,0,0,0,0,0,0,0,0,0,3,0,0,0,0,0,0,0,0,795,3600,,,,0,0,20,1.78,,,,5979.432,,,,10.1109/20.1044
74.5,13.5,0,0,9,0,0,0,0,0,0,0,0,0,0,0,3,0,0,0,0,0,0,0,0,773,3600,,,,0,0,20,1.66,,,,8346.976,,,,10.1109/20.1044
73.5,13.5,0,0,9,0,0,0,1,0,0,0,0,0,0,0,3,0,0,0,0,0,0,0,0,773,3600,,,,0,0,20,0.68783,,,,20696.43,,,,10.1109/20.1044
73.5,13.5,0,0,9,0,0,0,1,0,0,0,0,0,0,0,3,0,0,0,0,0,0,0,0,843,3600,,,,0,0,20,3.52,,,,27328.75,,,,10.1109/20.1044
73.5,16.5,0,0,6,0,0,0,1,0,0,0,0,0,0,0,3,0,0,0,0,0,0,0,0,813,3600,,,,0,0,20,2.04,,,,27609.5,,,14.0829,10.1109/20.1044
73.5,13.5,0,0,9,0,0,0,1,0,0,0,0,0,0,0,3,0,0,0,0,0,0,0,0,813,3600,,,,0,0,20,0.87656,,,,75731.34,,,,10.1109/20.1044
73.5,13.5,0,0,9,0,0,0,1,0,0,0,0,0,0,0,3,0,0,0,0,0,0,0,0,793,3600,,,,0,0,20,0.5666,,,,75731.34,,,,10.1109/20.1044
73.5,13.5,0,0,9,0,0,0,1,0,0,0,0,0,0,0,3,0,0,0,0,0,0,0,0,833,3600,,,,0,0,20,1.19,,,,81558.42,,,,10.1109/20.1044
73.5,13.5,0,0,9,0,0,0,1,0,0,0,0,0,0,0,3,0,0,0,0,0,0,0,0,813,3600,,,,0,0,20,0.81823,,,,82094.7,,,11.2085,10.1109/20.1044
73.5,13.5,0,0,9,0,0,0,1,0,0,0,0,0,0,0,3,0,0,0,0,0,0,0,0,903,3600,,,,0,0,20,3062.53,,,,,,,,10.1109/20.1044
73.5,13.5,0,0,9,0,0,0,1,0,0,0,0,0,0,0,3,0,0,0,0,0,0,0,0,933,3600,,,,0,0,20,3049.25,,,,,,,,10.1109/20.1044
73.5,13.5,0,0,9,0,0,0,1,0,0,0,0,0,0,0,3,0,0,0,0,0,0,0,0,973,3600,,,,0,0,20,2918.47,,,,,,,,10.1109/20.1044
73.5,13.5,0,0,9,0,0,0,1,0,0,0,0,0,0,0,3,0,0,0,0,0,0,0,0,1073,3600,,,,0,0,20,2079.89,,,,,,,,10.1109/20.1044
73.5,13.5,0,0,9,0,0,0,1,0,0,0,0,0,0,0,3,0,0,0,0,0,0,0,0,1173,3600,,,,0,0,20,1599.35,,,,,,,,10.1109/20.1044
74.5,13.5,0,0,9,0,0,0,0,0,0,0,0,0,0,0,3,0,0,0,0,0,0,0,0,1173,3600,,,,0,0,20,1178.54,,,,,,,,10.1109/20.1044
74.5,13.5,0,0,9,0,0,0,0,0,0,0,0,0,0,0,3,0,0,0,0,0,0,0,0,1073,3600,,,,0,0,20,932.79,,,,,,,,10.1109/20.1044
74.5,13.5,0,0,9,0,0,0,0,0,0,0,0,0,0,0,3,0,0,0,0,0,0,0,0,973,3600,,,,0,0,20,513.6,,,,,,,,10.1109/20.1044
74.5,13.5,0,0,9,0,0,0,0,0,0,0,0,0,0,0,3,0,0,0,0,0,0,0,0,933,3600,,,,0,0,20,339.36,,,,,,,,10.1109/20.1044
74.5,13.5,0,0,9,0,0,0,0,0,0,0,0,0,0,0,3,0,0,0,0,0,0,0,0,903,3600,,,,0,0,20,96.66,,,,,,,,10.1109/20.1044
73.5,13.5,0,0,9,0,0,0,1,0,0,0,0,0,0,0,3,0,0,0,0,0,0,0,0,823,3600,,,,1,0,18,0.35,,750,,25245,,1.24,,10.1109/20.42291
73.5,13.5,0,0,9,0,0,0,1,0,0,0,0,0,0,0,3,0,0,0,0,0,0,0,0,823,3600,,,,0,1,18,1.6,,246.85,,34417.5,,1.24,,10.1109/20.42291
73.5,13.5,0,0,9,0,0,0,1,0,0,0,0,0,0,0,3,0,0,0,0,0,0,0,0,823,3600,,,,0,0,18,0.53,,246.85,,83823.7,,1.24,,10.1109/20.42291
73.5,13.5,0,0,9,0,0,0,1,0,0,0,0,0,0,0,3,0,0,0,0,0,0,0,0,803,3600,,,,0,0,30,,,,,,1.0927,1.1988,,10.1109/20.8258
73.5,13.5,0,0,9,0,0,0,1,0,0,0,0,0,0,0,3,0,0,0,0,0,0,0,0,773,3600,,,,0,0,30,,,,,,1.82E+01,1.2757,,10.1109/20.8258
73.5,13.5,0,0,9,0,0,0,1,0,0,0,0,0,0,0,3,0,0,0,0,0,0,0,0,793,3600,,,,0,0,30,,,,,,8.93E+00,1.2837,,10.1109/20.8258
73.5,13.5,0,0,9,0,0,0,1,0,0,0,0,0,0,0,3,0,0,0,0,0,0,0,0,673,15000,,,,0,0,,,,,,3.65E+04,,,,10.1109/TJMJ.1990.4564397
73.5,13.5,0,0,9,0,0,0,1,0,0,0,0,0,0,0,3,0,0,0,0,0,0,0,0,673,42000,,,,0,0,,,,,,4.23E+04,,,,10.1109/TJMJ.1990.4564397
73.5,13.5,0,0,9,0,0,0,1,0,0,0,0,0,0,0,3,0,0,0,0,0,0,0,0,573,42000,,,,0,0,,,,,,5.59E+04,,,,10.1109/TJMJ.1990.4564397
73.5,13.5,0,0,9,0,0,0,1,0,0,0,0,0,0,0,3,0,0,0,0,0,0,0,0,673,3600,,,,0,0,,,,,,5.85E+04,,,,10.1109/TJMJ.1990.4564397
73.5,13.5,0,0,9,0,0,0,1,0,0,0,0,0,0,0,3,0,0,0,0,0,0,0,0,573,3600,,,,0,0,,,,,,6.67E+04,,,,10.1109/TJMJ.1990.4564397
73.5,13.5,0,0,9,0,0,0,1,0,0,0,0,0,0,0,3,0,0,0,0,0,0,0,0,573,15000,,,,0,0,,,,,,6.98E+04,,,,10.1109/TJMJ.1990.4564397
73.5,13.5,0,0,9,0,0,0,1,0,0,0,0,0,0,0,3,0,0,0,0,0,0,0,0,373,15000,,,,0,0,,,,,,8.44E+04,,,,10.1109/TJMJ.1990.4564397
73.5,13.5,0,0,9,0,0,0,1,0,0,0,0,0,0,0,3,0,0,0,0,0,0,0,0,373,36000,,,,0,0,,,,,,8.47E+04,,,,10.1109/TJMJ.1990.4564397
73.5,13.5,0,0,9,0,0,0,1,0,0,0,0,0,0,0,3,0,0,0,0,0,0,0,0,373,4.80E+05,,,,0,0,,,,,,8.53E+04,,,,10.1109/TJMJ.1990.4564397
73.5,13.5,0,0,9,0,0,0,1,0,0,0,0,0,0,0,3,0,0,0,0,0,0,0,0,373,96000,,,,0,0,,,,,,8.55E+04,,,,10.1109/TJMJ.1990.4564397
73.5,13.5,0,0,9,0,0,0,1,0,0,0,0,0,0,0,3,0,0,0,0,0,0,0,0,373,3600,,,,0,0,,,,,,8.64E+04,,,,10.1109/TJMJ.1990.4564397
73.5,13.5,0,0,9,0,0,0,1,0,0,0,0,0,0,0,3,0,0,0,0,0,0,0,0,373,9.60E+05,,,,0,0,,,,,,8.64E+04,,,,10.1109/TJMJ.1990.4564397
73.5,13.5,0,0,9,0,0,0,1,0,0,0,0,0,0,0,3,0,0,0,0,0,0,0,0,823,3600,,,,1,0,22.7013,,,1031.84,,,,,,10.1109/TJMJ.1990.4564397
73.5,13.5,0,0,9,0,0,0,1,0,0,0,0,0,0,0,3,0,0,0,0,0,0,0,0,823,3600,,,,1,0,18.1493,,,937.6053,,,,,,10.1109/TJMJ.1990.4564397
73.5,13.5,0,0,9,0,0,0,1,0,0,0,0,0,0,0,3,0,0,0,0,0,0,0,0,823,3600,,,,1,0,17.1677,,,807.2429,,,,,,10.1109/TJMJ.1990.4564397
73.5,13.5,0,0,9,0,0,0,1,0,0,0,0,0,0,0,3,0,0,0,0,0,0,0,0,823,3600,,,,1,0,13.3961,,,656.1743,,,,,,10.1109/TJMJ.1990.4564397
73.5,13.5,0,0,9,0,0,0,1,0,0,0,0,0,0,0,3,0,0,0,0,0,0,0,0,823,3600,,,,1,0,10.9969,,,596.9675,,,,,,10.1109/TJMJ.1990.4564397
73.5,13.5,0,0,9,0,0,0,1,0,0,0,0,0,0,0,3,0,0,0,0,0,0,0,0,823,3600,,,,1,0,7.2758,,,522.8373,,,,,,10.1109/TJMJ.1990.4564397
73.5,13.5,0,0,9,0,0,0,1,0,0,0,0,0,0,0,3,0,0,0,0,0,0,0,0,823,3600,,,,0,1,22.7095,,,480.4297,,,,,,10.1109/TJMJ.1990.4564397
73.5,13.5,0,0,9,0,0,0,1,0,0,0,0,0,0,0,3,0,0,0,0,0,0,0,0,823,3600,,,,0,0,22.6332,,,419.669,,,,,,10.1109/TJMJ.1990.4564397
73.5,13.5,0,0,9,0,0,0,1,0,0,0,0,0,0,0,3,0,0,0,0,0,0,0,0,823,3600,,,,0,0,18.1052,,,372.5629,,,,,,10.1109/TJMJ.1990.4564397
73.5,13.5,0,0,9,0,0,0,1,0,0,0,0,0,0,0,3,0,0,0,0,0,0,0,0,823,3600,,,,0,1,18.1277,,,339.4058,,,,,,10.1109/TJMJ.1990.4564397
73.5,13.5,0,0,9,0,0,0,1,0,0,0,0,0,0,0,3,0,0,0,0,0,0,0,0,823,3600,,,,0,0,17.051,,,332.9359,,,,,,10.1109/TJMJ.1990.4564397
73.5,13.5,0,0,9,0,0,0,1,0,0,0,0,0,0,0,3,0,0,0,0,0,0,0,0,823,3600,,,,0,1,17.0734,,,301.895,,,,,,10.1109/TJMJ.1990.4564397
73.5,13.5,0,0,9,0,0,0,1,0,0,0,0,0,0,0,3,0,0,0,0,0,0,0,0,823,3600,,,,0,0,13.4517,,,283.5699,,,,,,10.1109/TJMJ.1990.4564397
73.5,13.5,0,0,9,0,0,0,1,0,0,0,0,0,0,0,3,0,0,0,0,0,0,0,0,823,3600,,,,0,0,10.9317,,,277.94,,,,,,10.1109/TJMJ.1990.4564397
73.5,13.5,0,0,9,0,0,0,1,0,0,0,0,0,0,0,3,0,0,0,0,0,0,0,0,823,3600,,,,0,0,7.3592,,,264.7526,,,,,,10.1109/TJMJ.1990.4564397
73.5,13.5,0,0,9,0,0,0,1,0,0,0,0,0,0,0,3,0,0,0,0,0,0,0,0,823,3600,,,,0,1,13.4466,,,224.6179,,,,,,10.1109/TJMJ.1990.4564397
73.5,13.5,0,0,9,0,0,0,1,0,0,0,0,0,0,0,3,0,0,0,0,0,0,0,0,823,3600,,,,0,1,11.023,,,204.3477,,,,,,10.1109/TJMJ.1990.4564397
73.5,13.5,0,0,9,0,0,0,1,0,0,0,0,0,0,0,3,0,0,0,0,0,0,0,0,823,3600,,,,0,1,7.229,,,182.333,,,,,,10.1109/TJMJ.1990.4564397
85,1,0,0,9,4,0,0,1,0,0,0,0,0,0,0,0,0,0,0,0,0,0,0,0,653,7200,,,,0,0,18.5,7.6,,,,24000,,1.84,,10.1109/TMAG.2011.2175210
85,2,0,0,8,4,0,0,1,0,0,0,0,0,0,0,0,0,0,0,0,0,0,0,0,653,7200,,,,0,0,18.5,5.8,1001,,,27000,2.3,1.85,,10.1109/TMAG.2011.2175210
73.5,13.5,0,0,9,0,0,0,1,0,0,0,0,0,0,0,3,0,0,0,0,0,0,0,0,653,7200,,,,0,0,18.5,0.5,844,,,150000,2.1,1.23,,10.1109/TMAG.2011.2175210
83.7,0,0,0,14.8,0,0,0,1.5,0,0,0,0,0,0,0,0,0,0,0,0,0,0,0,0,583,3600,,579,728,0,0,21,14.5872,,,,,,1.67287,,10.1143/JJAP.46.L477
83.7,0,0,0,14.8,0,0,0,1.5,0,0,0,0,0,0,0,0,0,0,0,0,0,0,0,0,683,3600,,579,728,0,0,21,10.9461,,,,,,1.77622,,10.1143/JJAP.46.L477
83.7,0,0,0,14.8,0,0,0,1.5,0,0,0,0,0,0,0,0,0,0,0,0,0,0,0,0,603,3600,,579,728,0,0,21,9.94696,,,,,,1.76159,,10.1143/JJAP.46.L477
83.7,0,0,0,14.8,0,0,0,1.5,0,0,0,0,0,0,0,0,0,0,0,0,0,0,0,0,623,3600,,579,728,0,0,21,9.33205,,,,,,1.75518,,10.1143/JJAP.46.L477
83.7,0,0,0,14.8,0,0,0,1.5,0,0,0,0,0,0,0,0,0,0,0,0,0,0,0,0,643,3600,,579,728,0,0,21,7.58416,,,,,,1.77165,,10.1143/JJAP.46.L477
82.7,2,0,0,14,0,0,0,1.3,0,0,0,0,0,0,0,0,0,0,0,0,0,0,0,0,663,3600,,,,0,0,21,6.5,,,,,,1.85,,10.1143/JJAP.46.L477
83.7,0,0,0,14.8,0,0,0,1.5,0,0,0,0,0,0,0,0,0,0,0,0,0,0,0,0,663,3600,,579,728,0,0,21,6.46582,,,,,,1.8247,,10.1143/JJAP.46.L477
80.6,5,0,0,13,0,0,0,1.4,0,0,0,0,0,0,0,0,0,0,0,0,0,0,0,0,663,3600,,,,0,0,21,5.7,,,,,,1.8,,10.1143/JJAP.46.L477
73.5,13.5,0,0,9,0,0,0,1,0,0,0,0,0,0,0,3,0,0,0,0,0,0,0,0,869,15000,,,,0,0,18,,,,,2.00E+01,,,,10.1557/PROC-232-183
73.5,13.5,0,0,9,0,0,0,1,0,0,0,0,0,0,0,3,0,0,0,0,0,0,0,0,898,15000,,,,0,0,18,,,,,1.00E+02,,,,10.1557/PROC-232-183
73.5,13.5,0,0,9,0,0,0,1,0,0,0,0,0,0,0,3,0,0,0,0,0,0,0,0,900,3600,,,,0,0,18,,,,,2.00E+02,,,,10.1557/PROC-232-183
73.5,13.5,0,0,9,0,0,0,1,0,0,0,0,0,0,0,3,0,0,0,0,0,0,0,0,869,54000,,,,0,0,18,,,,,2.00E+02,,,,10.1557/PROC-232-183
73.5,13.5,0,0,9,0,0,0,1,0,0,0,0,0,0,0,3,0,0,0,0,0,0,0,0,898,1800,,,,0,0,18,,,,,4.00E+02,,,,10.1557/PROC-232-183
73.5,13.5,0,0,9,0,0,0,1,0,0,0,0,0,0,0,3,0,0,0,0,0,0,0,0,873,3600,,,,0,0,18,,,,,1776,,,,10.1557/PROC-232-183
73.5,13.5,0,0,9,0,0,0,1,0,0,0,0,0,0,0,3,0,0,0,0,0,0,0,0,838,54000,,,,0,0,18,,,,,5.00E+03,,,,10.1557/PROC-232-183
74.5,13.5,0,0,9,0,0,0,0,0,0,0,0,0,0,0,3,0,0,0,0,0,0,0,0,813,3600,,,,0,0,18,,,,,5.89E+03,,,,10.1557/PROC-232-183
74.5,13.5,0,0,9,0,0,0,0,0,0,0,0,0,0,0,3,0,0,0,0,0,0,0,0,803,3600,,,,0,0,18,,,,,8.25E+03,,,,10.1557/PROC-232-183
73.5,13.5,0,0,9,0,0,0,1,0,0,0,0,0,0,0,3,0,0,0,0,0,0,0,0,773,1800,,,,0,0,18,,,,,9.00E+03,,,,10.1557/PROC-232-183
73.5,13.5,0,0,9,0,0,0,1,0,0,0,0,0,0,0,3,0,0,0,0,0,0,0,0,723,1.80E+05,,,,0,0,18,,,,,9.00E+03,,,,10.1557/PROC-232-183
74.5,13.5,0,0,9,0,0,0,0,0,0,0,0,0,0,0,3,0,0,0,0,0,0,0,0,793,3600,,,,0,0,18,,,,,1.06E+04,,,,10.1557/PROC-232-183
73.5,13.5,0,0,9,0,0,0,1,0,0,0,0,0,0,0,3,0,0,0,0,0,0,0,0,743,15000,,,,0,0,18,,,,,1.10E+04,,,,10.1557/PROC-232-183
74.5,13.5,0,0,9,0,0,0,0,0,0,0,0,0,0,0,3,0,0,0,0,0,0,0,0,783,3600,,,,0,0,18,,,,,1.15E+04,,,,10.1557/PROC-232-183
74.5,13.5,0,0,9,0,0,0,0,0,0,0,0,0,0,0,3,0,0,0,0,0,0,0,0,773,3600,,,,0,0,18,,,,,1.20E+04,,,,10.1557/PROC-232-183
73.5,13.5,0,0,9,0,0,0,1,0,0,0,0,0,0,0,3,0,0,0,0,0,0,0,0,703,3.60E+05,,,,0,0,18,,,,,1.20E+04,,,,10.1557/PROC-232-183
73.5,13.5,0,0,9,0,0,0,1,0,0,0,0,0,0,0,3,0,0,0,0,0,0,0,0,723,3.60E+05,,,,0,0,18,,,,,1.20E+04,,,,10.1557/PROC-232-183
73.5,13.5,0,0,9,0,0,0,1,0,0,0,0,0,0,0,3,0,0,0,0,0,0,0,0,743,3600,,,,0,0,18,,,,,1.40E+04,,,,10.1557/PROC-232-183
74.5,13.5,0,0,9,0,0,0,0,0,0,0,0,0,0,0,3,0,0,0,0,0,0,0,0,763,3600,,,,0,0,18,,,,,1.46E+04,,,,10.1557/PROC-232-183
73.5,13.5,0,0,9,0,0,0,1,0,0,0,0,0,0,0,3,0,0,0,0,0,0,0,0,721,15000,,,,0,0,18,,,,,1.50E+04,,,,10.1557/PROC-232-183
73.5,13.5,0,0,9,0,0,0,1,0,0,0,0,0,0,0,3,0,0,0,0,0,0,0,0,773,3600,,,,0,0,18,,,,,1.70E+04,,,,10.1557/PROC-232-183
73.5,13.5,0,0,9,0,0,0,1,0,0,0,0,0,0,0,3,0,0,0,0,0,0,0,0,723,54000,,,,0,0,18,,,,,1.70E+04,,,,10.1557/PROC-232-183
73.5,13.5,0,0,9,0,0,0,1,0,0,0,0,0,0,0,3,0,0,0,0,0,0,0,0,723,3600,,,,0,0,18,,,,,1.80E+04,,,,10.1557/PROC-232-183
73.5,13.5,0,0,9,0,0,0,1,0,0,0,0,0,0,0,3,0,0,0,0,0,0,0,0,743,1.80E+05,,,,0,0,18,,,,,1.80E+04,,,,10.1557/PROC-232-183
74,13.5,0,0,9,0,0,0,0.5,0,0,0,0,0,0,0,3,0,0,0,0,0,0,0,0,793,3600,,,,0,0,18,,,,,18235,,,,10.1557/PROC-232-183
73.5,13.5,0,0,9,0,0,0,1,0,0,0,0,0,0,0,3,0,0,0,0,0,0,0,0,743,54000,,,,0,0,18,,,,,1.90E+04,,,,10.1557/PROC-232-183
73.5,13.5,0,0,9,0,0,0,1,0,0,0,0,0,0,0,3,0,0,0,0,0,0,0,0,773,3600,,,,0,0,18,,,,,1.99E+04,,,,10.1557/PROC-232-183
73.5,13.5,0,0,9,0,0,0,1,0,0,0,0,0,0,0,3,0,0,0,0,0,0,0,0,773,1.80E+05,,,,0,0,18,,,,,2.40E+04,,,,10.1557/PROC-232-183
74,13.5,0,0,9,0,0,0,0.5,0,0,0,0,0,0,0,3,0,0,0,0,0,0,0,0,803,3600,,,,0,0,18,,,,,28670,,,,10.1557/PROC-232-183
73.5,13.5,0,0,9,0,0,0,1,0,0,0,0,0,0,0,3,0,0,0,0,0,0,0,0,863,3600,,,,0,0,18,,,,,30962,,,,10.1557/PROC-232-183
73.5,13.5,0,0,9,0,0,0,1,0,0,0,0,0,0,0,3,0,0,0,0,0,0,0,0,900,300,,,,0,0,18,,,,,3.10E+04,,,,10.1557/PROC-232-183
73.5,13.5,0,0,9,0,0,0,1,0,0,0,0,0,0,0,3,0,0,0,0,0,0,0,0,778,54000,,,,0,0,18,,,,,3.50E+04,,,,10.1557/PROC-232-183
73,13.5,0,0,9,0,0,0,1.5,0,0,0,0,0,0,0,3,0,0,0,0,0,0,0,0,793,3600,,,,0,0,18,,,,,38043,,,,10.1557/PROC-232-183
73.5,13.5,0,0,9,0,0,0,1,0,0,0,0,0,0,0,3,0,0,0,0,0,0,0,0,803,1800,,,,0,0,18,,,,,4.10E+04,,,,10.1557/PROC-232-183
73.5,13.5,0,0,9,0,0,0,1,0,0,0,0,0,0,0,3,0,0,0,0,0,0,0,0,803,15000,,,,0,0,18,,,,,4.70E+04,,,,10.1557/PROC-232-183
73.5,13.5,0,0,9,0,0,0,1,0,0,0,0,0,0,0,3,0,0,0,0,0,0,0,0,793,3600,,,,0,0,18,,,,,4.81E+04,,,,10.1557/PROC-232-183
74,13.5,0,0,9,0,0,0,0.5,0,0,0,0,0,0,0,3,0,0,0,0,0,0,0,0,853,3600,,,,0,0,18,,,,,49472,,,,10.1557/PROC-232-183
73,13.5,0,0,9,0,0,0,1.5,0,0,0,0,0,0,0,3,0,0,0,0,0,0,0,0,803,3600,,,,0,0,18,,,,,52137,,,,10.1557/PROC-232-183
73,13.5,0,0,9,0,0,0,1.5,0,0,0,0,0,0,0,3,0,0,0,0,0,0,0,0,813,3600,,,,0,0,18,,,,,52517,,,,10.1557/PROC-232-183
74,13.5,0,0,9,0,0,0,0.5,0,0,0,0,0,0,0,3,0,0,0,0,0,0,0,0,813,3600,,,,0,0,18,,,,,55263,,,,10.1557/PROC-232-183
74,13.5,0,0,9,0,0,0,0.5,0,0,0,0,0,0,0,3,0,0,0,0,0,0,0,0,833,3600,,,,0,0,18,,,,,55419,,,,10.1557/PROC-232-183
73.5,13.5,0,0,9,0,0,0,1,0,0,0,0,0,0,0,3,0,0,0,0,0,0,0,0,803,3600,,,,0,0,18,,,,,5.80E+04,,,,10.1557/PROC-232-183
74,13.5,0,0,9,0,0,0,0.5,0,0,0,0,0,0,0,3,0,0,0,0,0,0,0,0,823,3600,,,,0,0,18,,,,,60217,,,,10.1557/PROC-232-183
73.5,13.5,0,0,9,0,0,0,1,0,0,0,0,0,0,0,3,0,0,0,0,0,0,0,0,869,3600,,,,0,0,18,,,,,6.20E+04,,,,10.1557/PROC-232-183
73.5,13.5,0,0,9,0,0,0,1,0,0,0,0,0,0,0,3,0,0,0,0,0,0,0,0,803,54000,,,,0,0,18,,,,,6.40E+04,,,,10.1557/PROC-232-183
73.5,13.5,0,0,9,0,0,0,1,0,0,0,0,0,0,0,3,0,0,0,0,0,0,0,0,843,600,,,,0,0,18,,,,,6.60E+04,,,,10.1557/PROC-232-183
[...]
80,10,0,0,3,0,0,0,0,0,0,0,0,0,0,7,0,0,0,0,0,0,0,0,0,873,3600,,,,0,0,20,,,,,2114.38,3.8,1.305,,https://www.jstage.jst.go.jp/article/matertrans1989/36/5/36_5_689/_article/-char/ja/
86,4,0,0,3,0,0,0,0,0,0,0,0,0,0,7,0,0,0,0,0,0,0,0,0,716,3600,789,822,1043,0,0,20,,,,,2863.5,5.39305,0.594055,,https://www.jstage.jst.go.jp/article/matertrans1989/36/5/36_5_689/_article/-char/ja/
87,4,0,0,2,0,0,0,0,0,0,0,0,0,0,7,0,0,0,0,0,0,0,0,0,717,3600,789,819,1044,0,0,20,,,,,3492.23,5.55261,0.594055,,https://www.jstage.jst.go.jp/article/matertrans1989/36/5/36_5_689/_article/-char/ja/
86,4,0,0,3,0,0,0,0,0,0,0,0,0,0,7,0,0,0,0,0,0,0,0,0,774,3600,789,822,1043,0,0,20,,,,,4703.42,2.28437,1.54771,,https://www.jstage.jst.go.jp/article/matertrans1989/36/5/36_5_689/_article/-char/ja/
82.5,7.5,0,0,3,0,0,0,0,0,0,0,0,0,0,7,0,0,0,0,0,0,0,0,0,873,3600,,,,0,0,20,,,,,5570.69,1,1.37249,,https://www.jstage.jst.go.jp/article/matertrans1989/36/5/36_5_689/_article/-char/ja/
87,4,0,0,2,0,0,0,0,0,0,0,0,0,0,7,0,0,0,0,0,0,0,0,0,774,3600,789,819,1044,0,0,20,,,,,5736.15,3.29496,1.47852,,https://www.jstage.jst.go.jp/article/matertrans1989/36/5/36_5_689/_article/-char/ja/
86,4,0,0,3,0,0,0,0,0,0,0,0,0,0,7,0,0,0,0,0,0,0,0,0,925,3600,789,822,1043,0,0,20,,,,,9610.78,0.345614,1.57312,,https://www.jstage.jst.go.jp/article/matertrans1989/36/5/36_5_689/_article/-char/ja/
86,4,0,0,3,0,0,0,0,0,0,0,0,0,0,7,0,0,0,0,0,0,0,0,0,826,3600,789,822,1043,0,0,20,,,,,10200.5,0.665439,1.54383,,https://www.jstage.jst.go.jp/article/matertrans1989/36/5/36_5_689/_article/-char/ja/
86,4,0,0,3,0,0,0,0,0,0,0,0,0,0,7,0,0,0,0,0,0,0,0,0,872,3600,789,822,1043,0,0,20,,,,,12195.7,0.371633,1.56639,,https://www.jstage.jst.go.jp/article/matertrans1989/36/5/36_5_689/_article/-char/ja/
86,4,0,0,3,0,0,0,0,0,0,0,0,0,0,7,0,0,0,0,0,0,0,0,0,873,3600,789,822,1043,0,0,20,,,,,12377.5,0.6,1.58399,,https://www.jstage.jst.go.jp/article/matertrans1989/36/5/36_5_689/_article/-char/ja/
87,4,0,0,2,0,0,0,0,0,0,0,0,0,0,7,0,0,0,0,0,0,0,0,0,826,3600,789,819,1044,0,0,20,,,,,12440.2,0.665439,1.48002,,https://www.jstage.jst.go.jp/article/matertrans1989/36/5/36_5_689/_article/-char/ja/
90,0,0,0,3,0,0,0,0,0,0,0,0,0,0,7,0,0,0,0,0,0,0,0,0,873,3600,,,,0,0,20,,,,,13241.9,-2,1.69503,,https://www.jstage.jst.go.jp/article/matertrans1989/36/5/36_5_689/_article/-char/ja/
87.5,2.5,0,0,3,0,0,0,0,0,0,0,0,0,0,7,0,0,0,0,0,0,0,0,0,873,3600,,,,0,0,20,,,,,13303.6,-1,1.64253,,https://www.jstage.jst.go.jp/article/matertrans1989/36/5/36_5_689/_article/-char/ja/
87,4,0,0,2,0,0,0,0,0,0,0,0,0,0,7,0,0,0,0,0,0,0,0,0,871,3600,789,819,1044,0,0,20,,,,,17090.7,0.371633,1.577,,https://www.jstage.jst.go.jp/article/matertrans1989/36/5/36_5_689/_article/-char/ja/
87,4,0,0,2,0,0,0,0,0,0,0,0,0,0,7,0,0,0,0,0,0,0,0,0,925,3600,789,819,1044,0,0,20,,,,,17782.8,0.345614,1.57312,,https://www.jstage.jst.go.jp/article/matertrans1989/36/5/36_5_689/_article/-char/ja/
90,0,0,0,3,0,0,0,0,0,0,0,0,0,0,7,0,0,0,0,0,0,0,0,0,823,3600,,,,0,0,20,,,,,,-1.1,,,https://www.jstage.jst.go.jp/article/matertrans1989/36/5/36_5_689/_article/-char/ja/
87.5,2.5,0,0,3,0,0,0,0,0,0,0,0,0,0,7,0,0,0,0,0,0,0,0,0,823,3600,,,,0,0,20,,,,,,-0.5,,,https://www.jstage.jst.go.jp/article/matertrans1989/36/5/36_5_689/_article/-char/ja/
86,4,0,0,3,0,0,0,0,0,0,0,0,0,0,7,0,0,0,0,0,0,0,0,0,823,3600,789,822,1043,0,0,20,,,,,,0.8,,,https://www.jstage.jst.go.jp/article/matertrans1989/36/5/36_5_689/_article/-char/ja/
85,5,0,0,3,0,0,0,0,0,0,0,0,0,0,7,0,0,0,0,0,0,0,0,0,823,3600,,,,0,0,20,,,,,,1.6,,,https://www.jstage.jst.go.jp/article/matertrans1989/36/5/36_5_689/_article/-char/ja/
82.5,7.5,0,0,3,0,0,0,0,0,0,0,0,0,0,7,0,0,0,0,0,0,0,0,0,823,3600,,,,0,0,20,,,,,,4.2,,,https://www.jstage.jst.go.jp/article/matertrans1989/36/5/36_5_689/_article/-char/ja/
80,10,0,0,3,0,0,0,0,0,0,0,0,0,0,7,0,0,0,0,0,0,0,0,0,823,3600,,,,0,0,20,,,,,,7.6,,,https://www.jstage.jst.go.jp/article/matertrans1989/36/5/36_5_689/_article/-char/ja/
75,15,0,0,3,0,0,0,0,0,0,0,0,0,0,7,0,0,0,0,0,0,0,0,0,823,3600,,,,0,0,20,,,,,,20.5,,,https://www.jstage.jst.go.jp/article/matertrans1989/36/5/36_5_689/_article/-char/ja/
85,5,0,0,3,0,0,0,0,0,0,0,0,0,0,7,0,0,0,0,0,0,0,0,0,873,3600,,,,0,0,20,,,,,,0.9,,,https://www.jstage.jst.go.jp/article/matertrans1989/36/5/36_5_689/_article/-char/ja/
81,8,0,0,10,0,0,0,1,0,0,0,0,0,0,0,0,0,0,0,0,0,0,0,0,743,300,,690,801,0,0,20.5,36.9483,,,,,,1.75435,,https://www.nature.com/articles/s41598-018-19665-8
81,6,0,0,10,2,0,0,1,0,0,0,0,0,0,0,0,0,0,0,0,0,0,0,0,743,300,,693,809,0,0,20.5,20.3134,,,,,,1.74565,,https://www.nature.com/articles/s41598-018-19665-8
81,4,0,0,10,4,0,0,1,0,0,0,0,0,0,0,0,0,0,0,0,0,0,0,0,743,300,,691,808,0,0,20.5,12.52,,,,,,1.7187,,https://www.nature.com/articles/s41598-018-19665-8
81,2,0,0,10,6,0,0,1,0,0,0,0,0,0,0,0,0,0,0,0,0,0,0,0,743,300,,685,801,0,0,20.5,11.7768,,,,,,1.68543,,https://www.nature.com/articles/s41598-018-19665-8
81,0,0,0,10,8,0,0,1,0,0,0,0,0,0,0,0,0,0,0,0,0,0,0,0,743,300,,713,781,0,0,20.5,9.1663,,,,,,1.67217,,https://www.nature.com/articles/s41598-018-19665-8
84,0,0,0,9,0,0,0,0,0,0,0,0,0,0,0,7,0,0,0,0,0,0,0,0,773,3600,,,,0,0,22,,,,,496.917,,1.0066,,https://www.sciencedirect.com/science/article/pii/0304885394905592
84,0,0,0,9,0,0,0,0,0,0,0,0,0,0,0,7,0,0,0,0,0,0,0,0,823,3600,,,,0,0,22,,,,,1784.15,,1.21002,,https://www.sciencedirect.com/science/article/pii/0304885394905592
89,0,0,0,4,0,0,0,0,0,0,0,0,0,0,0,0,0,7,0,0,0,0,0,0,773,3600,,,,0,0,17,,,,,2087.2,,0.989649,,https://www.sciencedirect.com/science/article/pii/0304885394905592
90,0,0,0,3,0,0,0,0,0,0,0,0,0,0,7,0,0,0,0,0,0,0,0,0,773,3600,,,,0,0,18,,,,,3072.12,,1.31595,,https://www.sciencedirect.com/science/article/pii/0304885394905592
84,0,0,0,9,0,0,0,0,0,0,0,0,0,0,0,7,0,0,0,0,0,0,0,0,873,3600,,,,0,0,22,,,,,7898.31,,1.34559,,https://www.sciencedirect.com/science/article/pii/0304885394905592
90,0,0,0,3,0,0,0,0,0,0,0,0,0,0,7,0,0,0,0,0,0,0,0,0,823,3600,,,,0,0,18,,,,,8830.13,,1.4939,,https://www.sciencedirect.com/science/article/pii/0304885394905592
89,0,0,0,4,0,0,0,0,0,0,0,0,0,0,0,0,0,7,0,0,0,0,0,0,823,3600,,,,0,0,17,,,,,10648.4,,1.43881,,https://www.sciencedirect.com/science/article/pii/0304885394905592
90,0,0,0,3,0,0,0,0,0,0,0,0,0,0,7,0,0,0,0,0,0,0,0,0,873,3600,,,,0,0,18,,,,,13632.1,,1.54056,,https://www.sciencedirect.com/science/article/pii/0304885394905592
89,0,0,0,4,0,0,0,0,0,0,0,0,0,0,0,0,0,7,0,0,0,0,0,0,872,3600,,,,0,0,17,,,,,17695.2,,1.53209,,https://www.sciencedirect.com/science/article/pii/0304885394905592
84,0,0,0,9,0,0,0,0,0,0,0,0,0,0,0,7,0,0,0,0,0,0,0,0,923,3600,,,,0,0,22,,,,,21261.4,,1.48125,,https://www.sciencedirect.com/science/article/pii/0304885394905592
90,0,0,0,3,0,0,0,0,0,0,0,0,0,0,7,0,0,0,0,0,0,0,0,0,923,3600,,,,0,0,18,,,,,21466.2,,1.60842,,https://www.sciencedirect.com/science/article/pii/0304885394905592
89,0,0,0,4,0,0,0,0,0,0,0,0,0,0,0,0,0,7,0,0,0,0,0,0,936,3600,,,,0,0,17,,,,,31310.3,,1.56434,,https://www.sciencedirect.com/science/article/pii/0304885394905592
89,0,0,0,4,0,0,0,0,0,0,0,0,0,0,0,0,0,7,0,0,0,0,0,0,921,3600,,,,0,0,17,,,,,31862.9,,1.55807,,https://www.sciencedirect.com/science/article/pii/0304885394905592
84,0,0,0,9,0,0,0,0,0,0,0,0,0,0,0,7,0,0,0,0,0,0,0,0,721,3600,,,,0,0,22,,,,,,,0.422266,,https://www.sciencedirect.com/science/article/pii/0304885394905592
84,0,0,0,9,0,0,0,0,0,0,0,0,0,0,0,7,0,0,0,0,0,0,0,0,973,3600,,,,0,0,22,,,,,,,1.363228,,https://www.sciencedirect.com/science/article/pii/0304885394905592
89,0,0,0,4,0,0,0,0,0,0,0,0,0,0,0,0,0,7,0,0,0,0,0,0,972,3600,,,,0,0,17,,,,,,,1.48335,,https://www.sciencedirect.com/science/article/pii/0304885394905592
90,0,0,0,3,0,0,0,0,0,0,0,0,0,0,7,0,0,0,0,0,0,0,0,0,973,3600,,,,0,0,18,,,,,,,1.56072,,https://www.sciencedirect.com/science/article/pii/0304885394905592
72.5,17.5,0,1,5,0,0,0,1,0,0,0,0,0,0,0,3,0,0,0,0,0,0,0,0,823,1800,,760,994,0,0,,2.06069,,,,,,1.13,12.4039,https://www.sciencedirect.com/science/article/pii/S0022309314006759
73.5,17.5,0,0,5,0,0,0,1,0,0,0,0,0,0,0,3,0,0,0,0,0,0,0,0,823,1800,,775,983,0,0,,1.89149,,,,,,1.23,11.6036,https://www.sciencedirect.com/science/article/pii/S0022309314006759
73.3,17.5,0,0.2,5,0,0,0,1,0,0,0,0,0,0,0,3,0,0,0,0,0,0,0,0,823,1800,,776,988,0,0,,1.84,,,,,,1.22,11.0025,https://www.sciencedirect.com/science/article/pii/S0022309314006759
73.1,17.5,0,0.4,5,0,0,0,1,0,0,0,0,0,0,0,3,0,0,0,0,0,0,0,0,823,1800,,770,990,0,0,,1.72966,,,,,,1.2,10.8996,https://www.sciencedirect.com/science/article/pii/S0022309314006759
72.9,17.5,0,0.6,5,0,0,0,1,0,0,0,0,0,0,0,3,0,0,0,0,0,0,0,0,823,1800,,765,993,0,0,,1.22759,,,,,,1.17,10.8514,https://www.sciencedirect.com/science/article/pii/S0022309314006759
72.7,17.5,0,0.8,5,0,0,0,1,0,0,0,0,0,0,0,3,0,0,0,0,0,0,0,0,823,1800,,764,993,0,0,,1.03816,,,,,,1.14,10.6007,https://www.sciencedirect.com/science/article/pii/S0022309314006759
73.5,7.5,0,0,9,0,0,6,1,0,0,0,0,0,0,0,3,0,0,0,0,0,0,0,0,873,3600,,766,958,0,0,,14.7047,,,,,,,,https://www.sciencedirect.com/science/article/pii/S0921452604009469?via%3Dihub
73.5,0,0,0,9,0,0,13.5,1,0,0,0,0,0,0,0,3,0,0,0,0,0,0,0,0,573,3600,,705,937,0,0,,10.3679,,,,,,0.8,,https://www.sciencedirect.com/science/article/pii/S0921452604009469?via%3Dihub
73.5,0,0,0,9,0,0,13.5,1,0,0,0,0,0,0,0,3,0,0,0,0,0,0,0,0,773,3600,,705,937,0,0,,9.5285,,,,,,0.85,,https://www.sciencedirect.com/science/article/pii/S0921452604009469?via%3Dihub
73.5,0,0,0,9,0,0,13.5,1,0,0,0,0,0,0,0,3,0,0,0,0,0,0,0,0,813,3600,,705,937,0,0,,7.19689,,,,,,,,https://www.sciencedirect.com/science/article/pii/S0921452604009469?via%3Dihub
73.5,3.5,0,0,9,0,0,10,1,0,0,0,0,0,0,0,3,0,0,0,0,0,0,0,0,573,3600,,721,940,0,0,,6.96373,,,,,,0.873214,,https://www.sciencedirect.com/science/article/pii/S0921452604009469?via%3Dihub
73.5,7.5,0,0,9,0,0,6,1,0,0,0,0,0,0,0,3,0,0,0,0,0,0,0,0,573,3600,,766,958,0,0,,6.26425,,,,,,,,https://www.sciencedirect.com/science/article/pii/S0921452604009469?via%3Dihub
73.5,0,0,0,9,0,0,13.5,1,0,0,0,0,0,0,0,3,0,0,0,0,0,0,0,0,723,3600,,705,937,0,0,,5.00518,,,,,,,,https://www.sciencedirect.com/science/article/pii/S0921452604009469?via%3Dihub
73.5,0,0,0,9,0,0,13.5,1,0,0,0,0,0,0,0,3,0,0,0,0,0,0,0,0,673,3600,,705,937,0,0,,4.49223,,,,,,0.885714,,https://www.sciencedirect.com/science/article/pii/S0921452604009469?via%3Dihub
73.5,3.5,0,0,9,0,0,10,1,0,0,0,0,0,0,0,3,0,0,0,0,0,0,0,0,813,3600,,721,940,0,0,,3.37306,,,,,,,,https://www.sciencedirect.com/science/article/pii/S0921452604009469?via%3Dihub
73.5,7.5,0,0,9,0,0,6,1,0,0,0,0,0,0,0,3,0,0,0,0,0,0,0,0,673,3600,,766,958,0,0,,3.32642,,,,,,,,https://www.sciencedirect.com/science/article/pii/S0921452604009469?via%3Dihub
73.5,3.5,0,0,9,0,0,10,1,0,0,0,0,0,0,0,3,0,0,0,0,0,0,0,0,723,3600,,721,940,0,0,,2.76684,,,,,,,,https://www.sciencedirect.com/science/article/pii/S0921452604009469?via%3Dihub
73.5,3.5,0,0,9,0,0,10,1,0,0,0,0,0,0,0,3,0,0,0,0,0,0,0,0,773,3600,,721,940,0,0,,2.02073,,,,,,0.9875,,https://www.sciencedirect.com/science/article/pii/S0921452604009469?via%3Dihub
73.5,3.5,0,0,9,0,0,10,1,0,0,0,0,0,0,0,3,0,0,0,0,0,0,0,0,673,3600,,721,940,0,0,,1.22798,,,,,,1.15536,,https://www.sciencedirect.com/science/article/pii/S0921452604009469?via%3Dihub
73.5,7.5,0,0,9,0,0,6,1,0,0,0,0,0,0,0,3,0,0,0,0,0,0,0,0,724,3600,,766,958,0,0,,1.13472,,,,,,,,https://www.sciencedirect.com/science/article/pii/S0921452604009469?via%3Dihub
73.5,7.5,0,0,9,0,0,6,1,0,0,0,0,0,0,0,3,0,0,0,0,0,0,0,0,773,3600,,766,958,0,0,,0.435233,,,,,,,,https://www.sciencedirect.com/science/article/pii/S0921452604009469?via%3Dihub
73.5,7.5,0,0,9,0,0,6,1,0,0,0,0,0,0,0,3,0,0,0,0,0,0,0,0,813,3600,,766,958,0,0,,0.435233,,,,,,,,https://www.sciencedirect.com/science/article/pii/S0921452604009469?via%3Dihub
83.44,3.89,0,0,7.92,4.06,0,0,0.69,0,0,0,0,0,0,0,0,0,0,0,0,0,0,0,0,748,600,,685,827,0,0,12,788.955,,,,1660.22,,,18.0183,https://www.sciencedirect.com/science/article/pii/S0925838816313470
84.32,3.87,0,0,7.59,4.16,0,0,0,0.05,0,0,0,0,0,0,0,0,0,0,0,0,0,0,0,773,600,,704,821,0,0,12,1826.46,,,,2065.31,,,39.3211,https://www.sciencedirect.com/science/article/pii/S0925838816313470
84.32,3.87,0,0,7.59,4.16,0,0,0,0.05,0,0,0,0,0,0,0,0,0,0,0,0,0,0,0,653,600,,704,821,0,0,12,387.164,,,,2077.49,,,47.3578,https://www.sciencedirect.com/science/article/pii/S0925838816313470
84.32,3.87,0,0,7.59,4.16,0,0,0,0.05,0,0,0,0,0,0,0,0,0,0,0,0,0,0,0,673,600,,704,821,0,0,12,321.486,,,,2401.55,,,45.1009,https://www.sciencedirect.com/science/article/pii/S0925838816313470
84.32,3.87,0,0,7.59,4.16,0,0,0,0.05,0,0,0,0,0,0,0,0,0,0,0,0,0,0,0,698,600,,704,821,0,0,12,221.875,,,,2513.13,,,43.1193,https://www.sciencedirect.com/science/article/pii/S0925838816313470
83.47,3.89,0,0,7.88,4.04,0,0,0,0,0.71,0,0,0,0,0,0,0,0,0,0,0,0,0,0,773,600,,710,824,0,0,12,2108.49,,,,2831.64,,,36.2385,https://www.sciencedirect.com/science/article/pii/S0925838816313470
83.47,3.89,0,0,7.88,4.04,0,0,0,0,0.71,0,0,0,0,0,0,0,0,0,0,0,0,0,0,698,600,,710,824,0,0,12,200.246,,,,3344.71,,,39.7064,https://www.sciencedirect.com/science/article/pii/S0925838816313470
83.47,3.89,0,0,7.88,4.04,0,0,0,0,0.71,0,0,0,0,0,0,0,0,0,0,0,0,0,0,673,600,,710,824,0,0,12,261.863,,,,3510.3,,,44.9358,https://www.sciencedirect.com/science/article/pii/S0925838816313470
84.32,3.87,0,0,7.59,4.16,0,0,0,0.05,0,0,0,0,0,0,0,0,0,0,0,0,0,0,0,633,600,,704,821,0,0,12,315.764,,,,3612.17,,,35.7982,https://www.sciencedirect.com/science/article/pii/S0925838816313470
84.32,3.87,0,0,7.59,4.16,0,0,0,0.05,0,0,0,0,0,0,0,0,0,0,0,0,0,0,0,748,600,,704,821,0,0,12,97.3567,,,,3616.77,,,38.1651,https://www.sciencedirect.com/science/article/pii/S0925838816313470
83.47,3.89,0,0,7.88,4.04,0,0,0,0,0.71,0,0,0,0,0,0,0,0,0,0,0,0,0,0,653,600,,710,824,0,0,12,367.81,,,,3707.98,,,44.9358,https://www.sciencedirect.com/science/article/pii/S0925838816313470
83.47,3.89,0,0,7.88,4.04,0,0,0,0,0.71,0,0,0,0,0,0,0,0,0,0,0,0,0,0,723,600,,710,824,0,0,12,95.5333,,,,4467.15,,,40.0367,https://www.sciencedirect.com/science/article/pii/S0925838816313470
83.44,3.89,0,0,7.92,4.06,0,0,0.69,0,0,0,0,0,0,0,0,0,0,0,0,0,0,0,0,633,600,,685,827,0,0,12,22.3946,,,,4883.91,,,34.9174,https://www.sciencedirect.com/science/article/pii/S0925838816313470
83.47,3.89,0,0,7.88,4.04,0,0,0,0,0.71,0,0,0,0,0,0,0,0,0,0,0,0,0,0,748,600,,710,824,0,0,12,77.691,,,,5654.82,,,38.6055,https://www.sciencedirect.com/science/article/pii/S0925838816313470
83.44,3.89,0,0,7.92,4.06,0,0,0.69,0,0,0,0,0,0,0,0,0,0,0,0,0,0,0,0,653,600,,685,827,0,0,12,15.4608,,,,5794.91,,,31.6147,https://www.sciencedirect.com/science/article/pii/S0925838816313470
83.44,3.89,0,0,7.92,4.06,0,0,0.69,0,0,0,0,0,0,0,0,0,0,0,0,0,0,0,0,613,600,,685,827,0,0,12,4.3452,,,,7266.37,,,20.2202,https://www.sciencedirect.com/science/article/pii/S0925838816313470
84.32,3.87,0,0,7.59,4.16,0,0,0,0.05,0,0,0,0,0,0,0,0,0,0,0,0,0,0,0,613,600,,704,821,0,0,12,8.2069,,,,8505.5,,,25.2294,https://www.sciencedirect.com/science/article/pii/S0925838816313470
83.44,3.89,0,0,7.92,4.06,0,0,0.69,0,0,0,0,0,0,0,0,0,0,0,0,0,0,0,0,673,600,,685,827,0,0,12,10.0366,,,,9249.38,,,28.5872,https://www.sciencedirect.com/science/article/pii/S0925838816313470
83.47,3.89,0,0,7.88,4.04,0,0,0,0,0.71,0,0,0,0,0,0,0,0,0,0,0,0,0,0,633,600,,710,824,0,0,12,12.6098,,,,9383.91,,,25.3945,https://www.sciencedirect.com/science/article/pii/S0925838816313470
83.47,3.89,0,0,7.88,4.04,0,0,0,0,0.71,0,0,0,0,0,0,0,0,0,0,0,0,0,0,613,600,,710,824,0,0,12,6.68497,,,,10706.6,,,15.2661,https://www.sciencedirect.com/science/article/pii/S0925838816313470
83.44,3.89,0,0,7.92,4.06,0,0,0.69,0,0,0,0,0,0,0,0,0,0,0,0,0,0,0,0,723,600,,685,827,0,0,12,4.58848,,,,10972.6,,,14.6606,https://www.sciencedirect.com/science/article/pii/S0925838816313470
83.44,3.89,0,0,7.92,4.06,0,0,0.69,0,0,0,0,0,0,0,0,0,0,0,0,0,0,0,0,698,600,,685,827,0,0,12,6.71692,,,,11040.3,,,26.1101,https://www.sciencedirect.com/science/article/pii/S0925838816313470
84.32,3.87,0,0,7.59,4.16,0,0,0,0.05,0,0,0,0,0,0,0,0,0,0,0,0,0,0,0,723,600,,704,821,0,0,12,124.729,,,,,,,42.6239,https://www.sciencedirect.com/science/article/pii/S0925838816313470
81.7,4,0,0,13,0,0,0,1.3,0,0,0,0,0,0,0,0,0,0,0,0,0,0,0,0,653,3600,,695,799,0,0,20,398.107,,,,,,1.72045,,https://www.sciencedirect.com/science/article/pii/S0925838817321278
81.7,4,0,0,13,0,0,0,1.3,0,0,0,0,0,0,0,0,0,0,0,0,0,0,0,0,668,3600,,695,799,0,0,20,382.48,,,,,,1.73047,,https://www.sciencedirect.com/science/article/pii/S0925838817321278
81.7,4,0,0,13,0,0,0,1.3,0,0,0,0,0,0,0,0,0,0,0,0,0,0,0,0,683,3600,,695,799,0,0,20,372.404,,,,,,1.7405,,https://www.sciencedirect.com/science/article/pii/S0925838817321278
81.7,4,0,0,13,0,0,0,1.3,0,0,0,0,0,0,0,0,0,0,0,0,0,0,0,0,698,3600,,695,799,0,0,20,372.404,,,,,,1.74525,,https://www.sciencedirect.com/science/article/pii/S0925838817321278
81.7,4,0,0,13,0,0,0,1.3,0,0,0,0,0,0,0,0,0,0,0,0,0,0,0,0,723,3600,,695,799,0,0,20,372.404,,,,,,1.75053,,https://www.sciencedirect.com/science/article/pii/S0925838817321278
81.5,4,0,0,13,0,0,0,1.5,0,0,0,0,0,0,0,0,0,0,0,0,0,0,0,0,653,3600,,672,798,0,0,20,242.945,,,,,,1.72995,,https://www.sciencedirect.com/science/article/pii/S0925838817321278
81.5,4,0,0,13,0,0,0,1.5,0,0,0,0,0,0,0,0,0,0,0,0,0,0,0,0,668,3600,,672,798,0,0,20,218.339,,,,,,1.75,,https://www.sciencedirect.com/science/article/pii/S0925838817321278
81.5,4,0,0,13,0,0,0,1.5,0,0,0,0,0,0,0,0,0,0,0,0,0,0,0,0,683,3600,,672,798,0,0,20,193.623,,,,,,1.75,,https://www.sciencedirect.com/science/article/pii/S0925838817321278
81.5,4,0,0,13,0,0,0,1.5,0,0,0,0,0,0,0,0,0,0,0,0,0,0,0,0,698,3600,,672,798,0,0,20,191.055,,,,,,1.75053,,https://www.sciencedirect.com/science/article/pii/S0925838817321278
81.5,4,0,0,13,0,0,0,1.5,0,0,0,0,0,0,0,0,0,0,0,0,0,0,0,0,723,3600,,672,798,0,0,20,183.556,,,,,,1.75053,,https://www.sciencedirect.com/science/article/pii/S0925838817321278
81,4,0,0,13,0,0,0,2,0,0,0,0,0,0,0,0,0,0,0,0,0,0,0,0,723,3600,,630,791,0,0,20,142.437,,,,,,1.76741,,https://www.sciencedirect.com/science/article/pii/S0925838817321278
81.7,4,0,0,13,0,0,0,1.3,0,0,0,0,0,0,0,0,0,0,0,0,0,0,0,0,638,3600,,695,799,0,0,20,138.685,,,,,,1.66029,,https://www.sciencedirect.com/science/article/pii/S0925838817321278
81.5,4,0,0,13,0,0,0,1.5,0,0,0,0,0,0,0,0,0,0,0,0,0,0,0,0,638,3600,,672,798,0,0,20,79.1682,,,,,,1.67032,,https://www.sciencedirect.com/science/article/pii/S0925838817321278
81.3,4,0,0,13,0,0,0,1.7,0,0,0,0,0,0,0,0,0,0,0,0,0,0,0,0,723,3600,,639,795,0,0,20,37.4898,,,,,,1.7748,,https://www.sciencedirect.com/science/article/pii/S0925838817321278
81,4,0,0,13,0,0,0,2,0,0,0,0,0,0,0,0,0,0,0,0,0,0,0,0,698,3600,,630,791,0,0,20,21.9801,,,,,,1.77058,,https://www.sciencedirect.com/science/article/pii/S0925838817321278
81.3,4,0,0,13,0,0,0,1.7,0,0,0,0,0,0,0,0,0,0,0,0,0,0,0,0,698,3600,,639,795,0,0,20,16.3867,,,,,,1.78008,,https://www.sciencedirect.com/science/article/pii/S0925838817321278
81,4,0,0,13,0,0,0,2,0,0,0,0,0,0,0,0,0,0,0,0,0,0,0,0,683,3600,,630,791,0,0,20,12.5473,,,,,,1.76953,,https://www.sciencedirect.com/science/article/pii/S0925838817321278
81,4,0,0,13,0,0,0,2,0,0,0,0,0,0,0,0,0,0,0,0,0,0,0,0,668,3600,,630,791,0,0,20,10.8338,,,,,,1.76003,,https://www.sciencedirect.com/science/article/pii/S0925838817321278
81.3,4,0,0,13,0,0,0,1.7,0,0,0,0,0,0,0,0,0,0,0,0,0,0,0,0,638,3600,,639,795,0,0,20,8.40693,,,,,,1.71992,,https://www.sciencedirect.com/science/article/pii/S0925838817321278
81,4,0,0,13,0,0,0,2,0,0,0,0,0,0,0,0,0,0,0,0,0,0,0,0,653,3600,,630,791,0,0,20,8.40693,,,,,,1.73997,,https://www.sciencedirect.com/science/article/pii/S0925838817321278
81.3,4,0,0,13,0,0,0,1.7,0,0,0,0,0,0,0,0,0,0,0,0,0,0,0,0,683,3600,,639,795,0,0,20,7.96983,,,,,,1.77533,,https://www.sciencedirect.com/science/article/pii/S0925838817321278
81.3,4,0,0,13,0,0,0,1.7,0,0,0,0,0,0,0,0,0,0,0,0,0,0,0,0,653,3600,,639,795,0,0,20,7.25888,,,,,,1.75053,,https://www.sciencedirect.com/science/article/pii/S0925838817321278
81.3,4,0,0,13,0,0,0,1.7,0,0,0,0,0,0,0,0,0,0,0,0,0,0,0,0,668,3600,,639,795,0,0,20,7.16263,,,,,,1.77058,,https://www.sciencedirect.com/science/article/pii/S0925838817321278
81,4,0,0,13,0,0,0,2,0,0,0,0,0,0,0,0,0,0,0,0,0,0,0,0,638,3600,,630,791,0,0,20,5.55812,,,,,,1.70989,,https://www.sciencedirect.com/science/article/pii/S0925838817321278